Date;Timestamp;DeviceOrientation;AccelerationX;AccelerationY;AccelerationZ;Label
2020-07-14 15:26:10;1594765571.9302711;faceUp;-0.63983154296875;0.54266357421875;-0.641815185546875;
2020-07-14 15:26:10;1594765571.93506;faceUp;-0.64495849609375;0.523284912109375;-0.5135650634765625;
2020-07-14 15:26:10;1594765571.955132;faceUp;-0.634918212890625;0.53070068359375;-0.524810791015625;
2020-07-14 15:26:10;1594765571.958387;faceUp;-0.6184539794921875;0.519287109375;-0.517578125;
2020-07-14 15:26:10;1594765571.961492;faceUp;-0.6396636962890625;0.5283203125;-0.54583740234375;
2020-07-14 15:26:10;1594765571.972612;faceUp;-0.632568359375;0.515594482421875;-0.5488128662109375;
2020-07-14 15:26:10;1594765571.9745011;faceUp;-0.6018829345703125;0.4981689453125;-0.53411865234375;
2020-07-14 15:26:10;1594765571.9879599;faceUp;-0.6344451904296875;0.5227508544921875;-0.5305633544921875;
2020-07-14 15:26:10;1594765571.990974;faceUp;-0.647796630859375;0.5303802490234375;-0.5504913330078125;
2020-07-14 15:26:10;1594765571.993526;faceUp;-0.62158203125;0.5171356201171875;-0.530914306640625;
2020-07-14 15:26:10;1594765572.005395;faceUp;-0.6451263427734375;0.5149688720703125;-0.519744873046875;
2020-07-14 15:26:10;1594765572.007263;faceUp;-0.6652374267578125;0.5206451416015625;-0.4942626953125;
2020-07-14 15:26:10;1594765572.020514;faceUp;-0.669586181640625;0.5079193115234375;-0.49090576171875;
2020-07-14 15:26:10;1594765572.0233521;faceUp;-0.6373291015625;0.4894561767578125;-0.522216796875;
2020-07-14 15:26:10;1594765572.026267;faceUp;-0.68731689453125;0.50238037109375;-0.5284881591796875;
2020-07-14 15:26:10;1594765572.038293;faceUp;-0.6704864501953125;0.48370361328125;-0.504486083984375;
2020-07-14 15:26:10;1594765572.040769;faceUp;-0.6800994873046875;0.509490966796875;-0.5299530029296875;
2020-07-14 15:26:10;1594765572.053773;faceUp;-0.696624755859375;0.5578460693359375;-0.5505218505859375;
2020-07-14 15:26:10;1594765572.0565748;faceUp;-0.759185791015625;0.593292236328125;-0.5611114501953125;
2020-07-14 15:26:10;1594765572.058718;faceUp;-0.71112060546875;0.5316314697265625;-0.5278778076171875;
2020-07-14 15:26:10;1594765572.071975;faceUp;-0.679840087890625;0.49395751953125;-0.4622955322265625;
2020-07-14 15:26:10;1594765572.074444;faceUp;-0.6820526123046875;0.47161865234375;-0.4893951416015625;
2020-07-14 15:26:10;1594765572.08751;faceUp;-0.6455535888671875;0.43157958984375;-0.4826812744140625;
2020-07-14 15:26:10;1594765572.090499;faceUp;-0.6649627685546875;0.416046142578125;-0.4774322509765625;
2020-07-14 15:26:10;1594765572.093629;faceUp;-0.66156005859375;0.4064788818359375;-0.53778076171875;
2020-07-14 15:26:10;1594765572.10589;faceUp;-0.6548614501953125;0.4205169677734375;-0.6036529541015625;
2020-07-14 15:26:10;1594765572.108252;faceUp;-0.6357574462890625;0.4589385986328125;-0.6396942138671875;
2020-07-14 15:26:10;1594765572.119792;faceUp;-0.6424102783203125;0.51092529296875;-0.68243408203125;
2020-07-14 15:26:10;1594765572.1227012;faceUp;-0.730560302734375;0.6558380126953125;-0.7053375244140625;
2020-07-14 15:26:10;1594765572.125279;faceUp;-0.696807861328125;0.7281646728515625;-0.77313232421875;
2020-07-14 15:26:10;1594765572.138194;faceUp;-0.5943756103515625;0.66168212890625;-0.791015625;
2020-07-14 15:26:10;1594765572.143005;faceUp;-0.4322357177734375;0.4825897216796875;-0.710205078125;
2020-07-14 15:26:10;1594765572.183477;faceUp;-0.4812469482421875;0.59490966796875;-0.6326446533203125;
2020-07-14 15:26:10;1594765572.225854;faceUp;-0.5074615478515625;0.84539794921875;-0.5619659423828125;
2020-07-14 15:26:10;1594765572.268259;faceUp;-0.4477691650390625;0.8038482666015625;-0.4641265869140625;
2020-07-14 15:26:10;1594765572.311192;faceUp;-0.4542388916015625;0.6270904541015625;-0.49932861328125;
2020-07-14 15:26:10;1594765572.3514051;faceUp;-0.388641357421875;0.5361175537109375;-0.4838714599609375;
2020-07-14 15:26:10;1594765572.39083;faceUp;-0.40155029296875;0.5991973876953125;-0.430389404296875;
2020-07-14 15:26:10;1594765572.427167;faceUp;-0.4666900634765625;0.6348419189453125;-0.455535888671875;
2020-07-14 15:26:10;1594765572.470325;faceUp;-0.5467987060546875;0.6250762939453125;-0.55889892578125;
2020-07-14 15:26:10;1594765572.511032;faceUp;-0.5651092529296875;0.562591552734375;-0.7111053466796875;
2020-07-14 15:26:10;1594765572.550115;faceUp;-0.55999755859375;0.553070068359375;-0.761444091796875;
2020-07-14 15:26:10;1594765572.588389;faceUp;-0.5631561279296875;0.4537200927734375;-0.6942291259765625;
2020-07-14 15:26:10;1594765572.630048;faceUp;-0.585662841796875;0.451416015625;-0.6391143798828125;
2020-07-14 15:26:10;1594765572.6686602;faceUp;-0.5714263916015625;0.4383697509765625;-0.6837158203125;
2020-07-14 15:26:10;1594765572.7101421;faceUp;-0.64056396484375;0.527679443359375;-0.699737548828125;
2020-07-14 15:26:10;1594765572.749024;faceUp;-0.5781707763671875;0.5042266845703125;-0.6092681884765625;
2020-07-14 15:26:10;1594765572.789989;faceUp;-0.6067352294921875;0.5977935791015625;-0.47967529296875;
2020-07-14 15:26:10;1594765572.828395;faceUp;-0.5690765380859375;0.742340087890625;-0.3666534423828125;
2020-07-14 15:26:10;1594765572.8714042;faceUp;-0.4988861083984375;0.925750732421875;-0.2104339599609375;
2020-07-14 15:26:10;1594765572.9095612;faceUp;-0.3954315185546875;0.837066650390625;-0.241912841796875;
2020-07-14 15:26:10;1594765572.9505649;faceUp;-0.47967529296875;0.74560546875;-0.01666259765625;
2020-07-14 15:26:10;1594765572.991222;faceUp;-0.5579376220703125;0.805206298828125;0.097076416015625;
2020-07-14 15:26:10;1594765573.030829;faceUp;-0.5784912109375;0.9022674560546875;-0.175506591796875;
2020-07-14 15:26:10;1594765573.0711432;faceUp;-0.65771484375;0.7819671630859375;-0.3477630615234375;
2020-07-14 15:26:10;1594765573.107892;faceUp;-0.654937744140625;0.6503448486328125;-0.288421630859375;
2020-07-14 15:26:10;1594765573.1509938;faceUp;-0.7196197509765625;0.619964599609375;-0.2828521728515625;
2020-07-14 15:26:10;1594765573.190829;faceUp;-0.902008056640625;0.6488800048828125;-0.30084228515625;
2020-07-14 15:26:10;1594765573.230725;faceUp;-0.988677978515625;0.6008453369140625;-0.2200469970703125;
2020-07-14 15:26:10;1594765573.270375;faceUp;-1.177978515625;0.700653076171875;-0.2633514404296875;
2020-07-14 15:26:10;1594765573.309685;faceUp;-1.3121337890625;0.8436431884765625;-0.47998046875;
2020-07-14 15:26:10;1594765573.348494;faceUp;-1.1968536376953125;0.706390380859375;-0.638458251953125;
2020-07-14 15:26:10;1594765573.39108;faceUp;-1.12890625;0.7675018310546875;-0.6629486083984375;
2020-07-14 15:26:10;1594765573.4303489;faceUp;-1.0415191650390625;0.8842315673828125;-0.5926361083984375;
2020-07-14 15:26:10;1594765573.4710279;faceUp;-0.8488006591796875;0.74774169921875;-0.555938720703125;
2020-07-14 15:26:10;1594765573.5106878;faceUp;-0.819366455078125;0.871826171875;-0.555999755859375;
2020-07-14 15:26:10;1594765573.55028;faceUp;-0.8314056396484375;1.107208251953125;-0.6868133544921875;
2020-07-14 15:26:10;1594765573.5910811;faceUp;-0.692779541015625;1.1484222412109375;-0.61773681640625;
2020-07-14 15:26:10;1594765573.629528;faceUp;-0.5509033203125;0.993927001953125;-0.488861083984375;
2020-07-14 15:26:10;1594765573.670675;faceUp;-0.4908294677734375;0.8296966552734375;-0.364471435546875;
2020-07-14 15:26:10;1594765573.7102199;faceUp;-0.418792724609375;0.7257843017578125;-0.3074951171875;
2020-07-14 15:26:10;1594765573.749854;faceUp;-0.366729736328125;0.5756988525390625;-0.2544708251953125;
2020-07-14 15:26:10;1594765573.790104;faceUp;-0.356414794921875;0.4866943359375;-0.125885009765625;
2020-07-14 15:26:10;1594765573.8299952;faceUp;-0.3980712890625;0.503021240234375;-0.00616455078125;
2020-07-14 15:26:10;1594765573.870928;faceUp;-0.420074462890625;0.575408935546875;-0.0218353271484375;
2020-07-14 15:26:10;1594765573.911767;faceUp;-0.36224365234375;0.6231231689453125;-0.073272705078125;
2020-07-14 15:26:10;1594765573.951253;faceUp;-0.4070892333984375;0.6245574951171875;-0.2407684326171875;
2020-07-14 15:26:10;1594765573.991123;faceUp;-0.4761962890625;0.83551025390625;-0.332733154296875;
2020-07-14 15:26:10;1594765574.034117;faceUp;-0.30841064453125;0.7629241943359375;-0.480010986328125;
2020-07-14 15:26:10;1594765574.069872;faceUp;-0.5465087890625;1.0364532470703125;-0.5495147705078125;
2020-07-14 15:26:10;1594765574.1107469;faceUp;-0.6973419189453125;1.2420654296875;-0.8047943115234375;
2020-07-14 15:26:10;1594765574.150076;faceUp;-0.8565826416015625;1.0835418701171875;-0.709869384765625;
2020-07-14 15:26:10;1594765574.189214;faceUp;-0.9462738037109375;0.810699462890625;-0.4445037841796875;
2020-07-14 15:26:10;1594765574.231381;faceUp;-0.997283935546875;0.7562103271484375;-0.1495513916015625;
2020-07-14 15:26:10;1594765574.2688289;faceUp;-0.8493194580078125;0.7624053955078125;-0.0128936767578125;
2020-07-14 15:26:10;1594765574.311153;faceUp;-0.8745574951171875;0.7953338623046875;-0.02337646484375;
2020-07-14 15:26:10;1594765574.349475;faceUp;-1.170684814453125;0.757720947265625;0.1364898681640625;
2020-07-14 15:26:10;1594765574.389186;faceUp;-1.3686370849609375;0.92279052734375;0.0444488525390625;
2020-07-14 15:26:10;1594765574.4299521;faceUp;-1.3486175537109375;1.0580902099609375;-0.295684814453125;
2020-07-14 15:26:10;1594765574.4670758;faceUp;-0.9589080810546875;1.0861968994140625;-0.635772705078125;
2020-07-14 15:26:10;1594765574.509921;faceUp;-0.913970947265625;0.9974212646484375;-0.8758087158203125;
2020-07-14 15:26:10;1594765574.554079;faceUp;-0.954925537109375;0.98187255859375;-0.76446533203125;
2020-07-14 15:26:10;1594765574.5916018;faceUp;-0.838592529296875;0.9046783447265625;-0.6017303466796875;
2020-07-14 15:26:10;1594765574.629815;faceUp;-0.830291748046875;1.05511474609375;-0.6077117919921875;
2020-07-14 15:26:10;1594765574.671016;faceUp;-0.692291259765625;1.236236572265625;-0.4998016357421875;
2020-07-14 15:26:10;1594765574.710603;faceUp;-0.5042572021484375;1.152923583984375;-0.540069580078125;
2020-07-14 15:26:10;1594765574.7508678;faceUp;-0.5210418701171875;1.0355072021484375;-0.5075836181640625;
2020-07-14 15:26:10;1594765574.79126;faceUp;-0.651702880859375;1.2005157470703125;-0.37030029296875;
2020-07-14 15:26:10;1594765574.830885;faceUp;-0.595001220703125;1.4653167724609375;-0.2681884765625;
2020-07-14 15:26:10;1594765574.87164;faceUp;-0.277435302734375;1.37530517578125;-0.281829833984375;
2020-07-14 15:26:10;1594765574.910653;faceUp;0.049407958984375;1.171966552734375;-0.175537109375;
2020-07-14 15:26:10;1594765574.950335;faceUp;0.4060821533203125;1.0764007568359375;0.0164337158203125;
2020-07-14 15:26:10;1594765574.9839659;faceUp;0.5309906005859375;0.9256134033203125;0.1992034912109375;
2020-07-14 15:26:10;1594765575.030669;faceUp;0.1705780029296875;1.0695953369140625;0.24114990234375;
2020-07-14 15:26:10;1594765575.070041;faceUp;-0.119110107421875;1.1060943603515625;0.14630126953125;
2020-07-14 15:26:10;1594765575.104001;faceUp;-0.44915771484375;1.537353515625;-0.06561279296875;
2020-07-14 15:26:10;1594765575.149701;faceUp;-0.572296142578125;1.7608795166015625;-0.0649261474609375;
2020-07-14 15:26:10;1594765575.191207;faceUp;-0.6586761474609375;1.6554412841796875;-0.0780181884765625;
2020-07-14 15:26:10;1594765575.2307448;faceUp;-0.8829803466796875;1.4489288330078125;-0.08282470703125;
2020-07-14 15:26:10;1594765575.270578;faceUp;-0.942535400390625;1.3087310791015625;-0.1688690185546875;
2020-07-14 15:26:10;1594765575.3106298;faceUp;-0.9037933349609375;1.26934814453125;-0.2920074462890625;
2020-07-14 15:26:10;1594765575.350484;faceUp;-0.935638427734375;1.1727142333984375;-0.3100738525390625;
2020-07-14 15:26:10;1594765575.391255;faceUp;-1.0997314453125;1.1168670654296875;-0.2329864501953125;
2020-07-14 15:26:10;1594765575.4307652;faceUp;-1.0774078369140625;1.16015625;0.07525634765625;
2020-07-14 15:26:10;1594765575.4712949;faceUp;-0.8837127685546875;1.0570220947265625;0.1198883056640625;
2020-07-14 15:26:10;1594765575.510157;faceUp;-1.019989013671875;1.0503692626953125;-0.0870513916015625;
2020-07-14 15:26:10;1594765575.5523329;faceUp;-0.8909759521484375;0.9371795654296875;-0.0816650390625;
2020-07-14 15:26:10;1594765575.593505;faceUp;-0.99298095703125;1.1282806396484375;-0.02386474609375;
2020-07-14 15:26:10;1594765575.6316009;faceUp;-1.041748046875;1.4297027587890625;-0.053741455078125;
2020-07-14 15:26:10;1594765575.671383;faceUp;-0.97198486328125;1.6306304931640625;-0.170745849609375;
2020-07-14 15:26:10;1594765575.7112532;faceUp;-0.8935394287109375;1.7505340576171875;-0.2181396484375;
2020-07-14 15:26:10;1594765575.750607;faceUp;-0.686492919921875;1.813201904296875;-0.13946533203125;
2020-07-14 15:26:10;1594765575.793591;faceUp;-0.5350799560546875;1.735382080078125;-0.1842193603515625;
2020-07-14 15:26:10;1594765575.831377;faceUp;-0.3771820068359375;1.5751800537109375;-0.2789154052734375;
2020-07-14 15:26:10;1594765575.8705978;faceUp;-0.2163848876953125;1.427581787109375;-0.2518768310546875;
2020-07-14 15:26:10;1594765575.911175;faceUp;-0.13580322265625;1.2369232177734375;-0.237823486328125;
2020-07-14 15:26:10;1594765575.95044;faceUp;-0.0237884521484375;0.992645263671875;-0.1290130615234375;
2020-07-14 15:26:10;1594765575.990951;faceUp;0.0861053466796875;0.782318115234375;-0.130889892578125;
2020-07-14 15:26:10;1594765576.031116;faceUp;0.0207366943359375;0.891693115234375;-0.0794219970703125;
2020-07-14 15:26:10;1594765576.073906;faceUp;0.283721923828125;0.896759033203125;0.050994873046875;
2020-07-14 15:26:10;1594765576.111102;faceUp;-0.0591583251953125;1.1183319091796875;-0.0352325439453125;
2020-07-14 15:26:10;1594765576.153137;faceUp;-0.32147216796875;1.357940673828125;0.031524658203125;
2020-07-14 15:26:10;1594765576.193655;faceUp;-0.5065155029296875;1.4571075439453125;-0.013763427734375;
2020-07-14 15:26:10;1594765576.2297711;faceUp;-0.626953125;1.3784027099609375;0.113067626953125;
2020-07-14 15:26:10;1594765576.272067;faceUp;-0.6898193359375;1.2820587158203125;0.1877899169921875;
2020-07-14 15:26:10;1594765576.311353;faceUp;-0.692474365234375;1.253936767578125;0.084075927734375;
2020-07-14 15:26:10;1594765576.353331;faceUp;-0.7021331787109375;1.30242919921875;-0.0377655029296875;
2020-07-14 15:26:10;1594765576.385563;faceUp;-0.8395538330078125;1.42626953125;-0.1155242919921875;
2020-07-14 15:26:10;1594765576.431964;faceUp;-1.18902587890625;1.4930572509765625;-0.1149139404296875;
2020-07-14 15:26:10;1594765576.474077;faceUp;-1.593597412109375;1.3042755126953125;-0.25323486328125;
2020-07-14 15:26:10;1594765576.512241;faceUp;-1.5247955322265625;0.92169189453125;-0.098602294921875;
2020-07-14 15:26:10;1594765576.550421;faceUp;-1.232177734375;1.168304443359375;-0.0426177978515625;
2020-07-14 15:26:10;1594765576.5932841;faceUp;-0.90533447265625;1.0015411376953125;-0.244232177734375;
2020-07-14 15:26:10;1594765576.633702;faceUp;-0.9054412841796875;1.2258758544921875;-0.488525390625;
2020-07-14 15:26:10;1594765576.673981;faceUp;-0.8101959228515625;1.5166015625;-0.415618896484375;
2020-07-14 15:26:10;1594765576.711586;faceUp;-0.6451568603515625;1.6024169921875;-0.4345550537109375;
2020-07-14 15:26:10;1594765576.753944;faceUp;-0.5840911865234375;1.5257415771484375;-0.404296875;
2020-07-14 15:26:10;1594765576.7946901;faceUp;-0.54998779296875;1.515838623046875;-0.2697601318359375;
2020-07-14 15:26:10;1594765576.8336492;faceUp;-0.455657958984375;1.508026123046875;-0.191192626953125;
2020-07-14 15:26:10;1594765576.874175;faceUp;-0.300201416015625;1.35784912109375;-0.2376556396484375;
2020-07-14 15:26:10;1594765576.9137259;faceUp;-0.2518768310546875;1.1000213623046875;-0.1159515380859375;
2020-07-14 15:26:10;1594765576.953604;faceUp;-0.173980712890625;0.940704345703125;0.02423095703125;
2020-07-14 15:26:10;1594765576.9920712;faceUp;-0.02154541015625;0.8288726806640625;0.0441741943359375;
2020-07-14 15:26:10;1594765577.031779;faceUp;0.158966064453125;0.622894287109375;0.03485107421875;
2020-07-14 15:26:10;1594765577.075718;faceUp;0.060150146484375;0.6169281005859375;0.0373077392578125;
2020-07-14 15:26:10;1594765577.113524;faceUp;0.1620941162109375;0.6930389404296875;-0.04364013671875;
2020-07-14 15:26:10;1594765577.153411;faceUp;-0.1751861572265625;0.93988037109375;-0.15618896484375;
2020-07-14 15:26:10;1594765577.1940532;faceUp;-0.6412353515625;1.3573760986328125;0.02386474609375;
2020-07-14 15:26:10;1594765577.233727;faceUp;-0.748565673828125;1.7202301025390625;-0.06500244140625;
2020-07-14 15:26:10;1594765577.274051;faceUp;-0.7198486328125;1.6787567138671875;-0.491302490234375;
2020-07-14 15:26:10;1594765577.313669;faceUp;-0.8509979248046875;1.3691558837890625;-0.7388458251953125;
2020-07-14 15:26:10;1594765577.353442;faceUp;-1.023681640625;1.1268310546875;-0.669219970703125;
2020-07-14 15:26:10;1594765577.393842;faceUp;-1.021148681640625;0.9956817626953125;-0.3790283203125;
2020-07-14 15:26:10;1594765577.432119;faceUp;-0.784454345703125;1.064605712890625;-0.1439208984375;
2020-07-14 15:26:10;1594765577.474526;faceUp;-0.7351226806640625;1.101104736328125;0.0175933837890625;
2020-07-14 15:26:10;1594765577.5120559;faceUp;-1.034271240234375;0.9851837158203125;-0.196502685546875;
2020-07-14 15:26:10;1594765577.5542889;faceUp;-1.3434906005859375;0.913848876953125;-0.7737884521484375;
2020-07-14 15:26:10;1594765577.59354;faceUp;-1.3293304443359375;1.1301116943359375;-0.6236572265625;
2020-07-14 15:26:10;1594765577.633699;faceUp;-1.0623626708984375;1.285919189453125;-0.6341400146484375;
2020-07-14 15:26:10;1594765577.675333;faceUp;-0.8619232177734375;1.471038818359375;-0.691192626953125;
2020-07-14 15:26:10;1594765577.71201;faceUp;-0.6969146728515625;1.5350341796875;-0.5566864013671875;
2020-07-14 15:26:10;1594765577.74608;faceUp;-0.4984893798828125;1.3378448486328125;-0.457672119140625;
2020-07-14 15:26:10;1594765577.794901;faceUp;-0.4690704345703125;1.1950225830078125;-0.409210205078125;
2020-07-14 15:26:10;1594765577.834638;faceUp;-0.4965972900390625;1.2435150146484375;-0.3087615966796875;
2020-07-14 15:26:10;1594765577.8750029;faceUp;-0.418212890625;1.3081512451171875;-0.2730865478515625;
2020-07-14 15:26:10;1594765577.914178;faceUp;-0.4033355712890625;1.425933837890625;-0.3572845458984375;
2020-07-14 15:26:10;1594765577.951953;faceUp;-0.358489990234375;1.5365753173828125;-0.46240234375;
2020-07-14 15:26:10;1594765577.9934359;faceUp;-0.246856689453125;1.3729248046875;-0.503692626953125;
2020-07-14 15:26:10;1594765578.0339231;faceUp;-0.2009124755859375;1.1147308349609375;-0.399749755859375;
2020-07-14 15:26:10;1594765578.074822;faceUp;-0.0475006103515625;0.8029022216796875;-0.2004547119140625;
2020-07-14 15:26:10;1594765578.114215;faceUp;0.0955657958984375;0.7602996826171875;-0.0709228515625;
2020-07-14 15:26:10;1594765578.1552691;faceUp;0.318756103515625;0.635650634765625;-0.0450897216796875;
2020-07-14 15:26:10;1594765578.194185;faceUp;0.06854248046875;0.9741973876953125;-0.0234375;
2020-07-14 15:26:10;1594765578.233852;faceUp;-0.1170654296875;1.2508697509765625;0.0496063232421875;
2020-07-14 15:26:10;1594765578.2748451;faceUp;-0.421539306640625;1.364898681640625;0.02923583984375;
2020-07-14 15:26:10;1594765578.314135;faceUp;-0.712127685546875;1.2909393310546875;0.058929443359375;
2020-07-14 15:26:10;1594765578.355578;faceUp;-0.770355224609375;1.249755859375;0.0896148681640625;
2020-07-14 15:26:10;1594765578.39118;faceUp;-0.7181396484375;1.3744659423828125;-0.0342864990234375;
2020-07-14 15:26:10;1594765578.433704;faceUp;-0.7834930419921875;1.434539794921875;-0.1450347900390625;
2020-07-14 15:26:10;1594765578.4738479;faceUp;-0.9901580810546875;1.3401336669921875;-0.0880584716796875;
2020-07-14 15:26:10;1594765578.513825;faceUp;-1.120361328125;1.414154052734375;-0.13629150390625;
2020-07-14 15:26:10;1594765578.555013;faceUp;-1.086944580078125;1.3504486083984375;-0.2559661865234375;
2020-07-14 15:26:10;1594765578.594934;faceUp;-0.9600067138671875;1.0941314697265625;-0.2620849609375;
2020-07-14 15:26:10;1594765578.6344361;faceUp;-1.13043212890625;1.1023712158203125;-0.2082977294921875;
2020-07-14 15:26:10;1594765578.6750588;faceUp;-1.0015869140625;1.00225830078125;-0.0495452880859375;
2020-07-14 15:26:10;1594765578.715465;faceUp;-0.979888916015625;1.075347900390625;-0.135284423828125;
2020-07-14 15:26:10;1594765578.756446;faceUp;-0.9347381591796875;1.21514892578125;-0.1981658935546875;
2020-07-14 15:26:10;1594765578.794125;faceUp;-0.90228271484375;1.3224945068359375;-0.2722015380859375;
2020-07-14 15:26:10;1594765578.834087;faceUp;-0.864532470703125;1.422210693359375;-0.3115234375;
2020-07-14 15:26:10;1594765578.875474;faceUp;-0.8052825927734375;1.5299224853515625;-0.2576904296875;
2020-07-14 15:26:10;1594765578.915621;faceUp;-0.692626953125;1.651153564453125;-0.18389892578125;
2020-07-14 15:26:10;1594765578.9548879;faceUp;-0.5574188232421875;1.6650390625;-0.178253173828125;
2020-07-14 15:26:10;1594765578.995003;faceUp;-0.4250030517578125;1.682281494140625;-0.285491943359375;
2020-07-14 15:26:10;1594765579.03528;faceUp;-0.2100067138671875;1.5121917724609375;-0.323333740234375;
2020-07-14 15:26:10;1594765579.076651;faceUp;-0.044952392578125;1.1717529296875;-0.2778472900390625;
2020-07-14 15:26:10;1594765579.116853;faceUp;0.016387939453125;0.7855377197265625;-0.162750244140625;
2020-07-14 15:26:10;1594765579.155078;faceUp;0.08087158203125;0.6461334228515625;-0.0860748291015625;
2020-07-14 15:26:10;1594765579.1951962;faceUp;0.2708892822265625;0.7355499267578125;0.0342864990234375;
2020-07-14 15:26:10;1594765579.235005;faceUp;0.2133941650390625;0.77618408203125;0.0223388671875;
2020-07-14 15:26:10;1594765579.2766628;faceUp;-0.28021240234375;1.1468048095703125;0.0804595947265625;
2020-07-14 15:26:10;1594765579.314466;faceUp;-0.64288330078125;1.412811279296875;0.3256683349609375;
2020-07-14 15:26:10;1594765579.355902;faceUp;-0.75341796875;1.446258544921875;0.25341796875;
2020-07-14 15:26:10;1594765579.394932;faceUp;-0.7708282470703125;1.4188232421875;0.0665435791015625;
2020-07-14 15:26:10;1594765579.434812;faceUp;-0.8345184326171875;1.4375;-0.07513427734375;
2020-07-14 15:26:10;1594765579.476663;faceUp;-1.0369110107421875;1.3561859130859375;-0.0831451416015625;
2020-07-14 15:26:10;1594765579.514526;faceUp;-1.1953125;1.102264404296875;0.14764404296875;
2020-07-14 15:26:10;1594765579.5562701;faceUp;-1.150146484375;0.8300933837890625;0.1874237060546875;
2020-07-14 15:26:10;1594765579.595187;faceUp;-1.248809814453125;0.8412322998046875;0.2055206298828125;
2020-07-14 15:26:10;1594765579.63619;faceUp;-1.072235107421875;0.845703125;0.1845855712890625;
2020-07-14 15:26:10;1594765579.674533;faceUp;-0.880218505859375;0.6518402099609375;0.31475830078125;
2020-07-14 15:26:10;1594765579.716557;faceUp;-1.008636474609375;0.490753173828125;0.4150238037109375;
2020-07-14 15:26:10;1594765579.7561631;faceUp;-0.9544677734375;0.6687164306640625;0.4005889892578125;
2020-07-14 15:26:10;1594765579.79459;faceUp;-0.953033447265625;0.8977508544921875;0.109466552734375;
2020-07-14 15:26:10;1594765579.83573;faceUp;-1.0004425048828125;0.979461669921875;-0.1681976318359375;
2020-07-14 15:26:10;1594765579.8756099;faceUp;-1.0151519775390625;1.12579345703125;-0.3119049072265625;
2020-07-14 15:26:10;1594765579.915688;faceUp;-0.909423828125;1.2471923828125;-0.7788238525390625;
2020-07-14 15:26:10;1594765579.956569;faceUp;-0.4524688720703125;0.986114501953125;-0.95782470703125;
2020-07-14 15:26:10;1594765579.996272;faceUp;-0.1381683349609375;0.935302734375;-0.6285400390625;
2020-07-14 15:26:10;1594765580.036443;faceUp;0.183929443359375;0.7454681396484375;-0.6321258544921875;
2020-07-14 15:26:10;1594765580.077506;faceUp;0.0764007568359375;0.758209228515625;-0.7877197265625;
2020-07-14 15:26:10;1594765580.117124;faceUp;-0.1152191162109375;0.8988189697265625;-0.79998779296875;
2020-07-14 15:26:10;1594765580.157543;faceUp;-0.301483154296875;0.93359375;-0.6817474365234375;
2020-07-14 15:26:10;1594765580.196433;faceUp;-0.6403350830078125;1.0267181396484375;-0.835968017578125;
2020-07-14 15:26:10;1594765580.236381;faceUp;-1.051025390625;0.8605499267578125;-0.7169952392578125;
2020-07-14 15:26:10;1594765580.276293;faceUp;-1.0830841064453125;0.5447540283203125;-0.3384857177734375;
2020-07-14 15:26:10;1594765580.315151;faceUp;-0.8143310546875;0.7817535400390625;-0.0781097412109375;
2020-07-14 15:26:10;1594765580.35655;faceUp;-0.7005615234375;1.2228240966796875;-0.00408935546875;
2020-07-14 15:26:10;1594765580.396995;faceUp;-0.721282958984375;1.62567138671875;-0.2351531982421875;
2020-07-14 15:26:10;1594765580.4367728;faceUp;-0.6513824462890625;1.6218109130859375;-0.5892791748046875;
2020-07-14 15:26:10;1594765580.476085;faceUp;-0.6913299560546875;1.4574127197265625;-0.4566192626953125;
2020-07-14 15:26:10;1594765580.5163841;faceUp;-0.623931884765625;1.54595947265625;-0.1504974365234375;
2020-07-14 15:26:10;1594765580.556915;faceUp;-0.4464263916015625;1.70196533203125;0.18280029296875;
2020-07-14 15:26:10;1594765580.596181;faceUp;-0.210174560546875;1.5653228759765625;-0.1136322021484375;
2020-07-14 15:26:10;1594765580.636605;faceUp;0.5734710693359375;1.2348785400390625;-0.2630462646484375;
2020-07-14 15:26:10;1594765580.676503;faceUp;1.318328857421875;1.3638763427734375;0.308319091796875;
2020-07-14 15:26:10;1594765580.71645;faceUp;0.4781646728515625;1.3738250732421875;-0.0544281005859375;
2020-07-14 15:26:10;1594765580.757503;faceUp;-0.27398681640625;1.2247314453125;-0.363189697265625;
2020-07-14 15:26:10;1594765580.797101;faceUp;-0.1676177978515625;1.1770477294921875;0.2717742919921875;
2020-07-14 15:26:10;1594765580.8369431;faceUp;-0.030670166015625;1.25238037109375;0.60260009765625;
2020-07-14 15:26:10;1594765580.877723;faceUp;-0.280059814453125;1.332672119140625;0.6216583251953125;
2020-07-14 15:26:10;1594765580.916251;faceUp;-0.5546875;1.3080902099609375;0.374481201171875;
2020-07-14 15:26:10;1594765580.957536;faceUp;-0.63238525390625;1.334503173828125;0.4945220947265625;
2020-07-14 15:26:10;1594765580.988991;faceUp;-0.697113037109375;1.2537384033203125;0.6408843994140625;
2020-07-14 15:26:10;1594765581.036563;faceUp;-0.8338470458984375;1.029693603515625;0.52838134765625;
2020-07-14 15:26:10;1594765581.078024;faceUp;-0.831573486328125;0.9292144775390625;0.3668670654296875;
2020-07-14 15:26:10;1594765581.115201;faceUp;-0.7914276123046875;0.9178314208984375;0.208740234375;
2020-07-14 15:26:10;1594765581.1576219;faceUp;-1.0027313232421875;0.886138916015625;0.0665435791015625;
2020-07-14 15:26:10;1594765581.197108;faceUp;-1.11962890625;0.8463134765625;-0.0773468017578125;
2020-07-14 15:26:10;1594765581.2358708;faceUp;-1.066986083984375;1.0124969482421875;0.135955810546875;
2020-07-14 15:26:10;1594765581.2769651;faceUp;-1.018310546875;1.251708984375;0.1499481201171875;
2020-07-14 15:26:10;1594765581.317288;faceUp;-1.09075927734375;1.5493011474609375;0.0071258544921875;
2020-07-14 15:26:10;1594765581.3578448;faceUp;-1.037078857421875;1.7295379638671875;-0.150482177734375;
2020-07-14 15:26:10;1594765581.3974319;faceUp;-0.862762451171875;1.846282958984375;-0.2303619384765625;
2020-07-14 15:26:10;1594765581.4371881;faceUp;-0.6965484619140625;1.802001953125;-0.1969146728515625;
2020-07-14 15:26:10;1594765581.477087;faceUp;-0.531585693359375;1.6628265380859375;-0.2146759033203125;
2020-07-14 15:26:10;1594765581.516398;faceUp;-0.3866424560546875;1.367950439453125;-0.1883697509765625;
2020-07-14 15:26:10;1594765581.5575562;faceUp;-0.3730010986328125;1.2188568115234375;-0.154815673828125;
2020-07-14 15:26:10;1594765581.5963678;faceUp;-0.272674560546875;1.1120147705078125;-0.1485748291015625;
2020-07-14 15:26:10;1594765581.638037;faceUp;-0.077789306640625;0.8702545166015625;-0.105255126953125;
2020-07-14 15:26:10;1594765581.6776981;faceUp;0.0431976318359375;0.6513671875;0.004119873046875;
2020-07-14 15:26:10;1594765581.718725;portraitUpsideDown;0.097869873046875;0.71356201171875;0.153045654296875;
2020-07-14 15:26:10;1594765581.75806;portraitUpsideDown;0.2352447509765625;0.763519287109375;0.116851806640625;
2020-07-14 15:26:10;1594765581.79636;portraitUpsideDown;-0.084869384765625;1.0206756591796875;-0.0030975341796875;
2020-07-14 15:26:10;1594765581.837266;portraitUpsideDown;-0.4115447998046875;1.286346435546875;0.092529296875;
2020-07-14 15:26:10;1594765581.8767009;portraitUpsideDown;-0.5951690673828125;1.5086669921875;0.08831787109375;
2020-07-14 15:26:10;1594765581.918099;portraitUpsideDown;-0.732635498046875;1.447540283203125;0.000518798828125;
2020-07-14 15:26:10;1594765581.956672;portraitUpsideDown;-0.8650360107421875;1.3465423583984375;0.0306549072265625;
2020-07-14 15:26:10;1594765581.99686;portraitUpsideDown;-0.8844146728515625;1.3216705322265625;0.060882568359375;
2020-07-14 15:26:10;1594765582.037456;portraitUpsideDown;-0.9127197265625;1.2779083251953125;-0.031005859375;
2020-07-14 15:26:10;1594765582.0769591;portraitUpsideDown;-0.9400634765625;1.2252655029296875;-0.0802154541015625;
2020-07-14 15:26:10;1594765582.117346;portraitUpsideDown;-0.9509735107421875;1.2044525146484375;-0.0583648681640625;
2020-07-14 15:26:10;1594765582.160451;portraitUpsideDown;-0.8816375732421875;1.186431884765625;-0.055023193359375;
2020-07-14 15:26:10;1594765582.196241;portraitUpsideDown;-0.820556640625;0.99041748046875;-0.0435638427734375;
2020-07-14 15:26:10;1594765582.2368212;portraitUpsideDown;-0.97882080078125;1.001556396484375;-0.0250396728515625;
2020-07-14 15:26:10;1594765582.2770429;portraitUpsideDown;-0.896148681640625;0.956787109375;-0.0231475830078125;
2020-07-14 15:26:10;1594765582.317443;portraitUpsideDown;-0.8758087158203125;0.93731689453125;-0.0568389892578125;
2020-07-14 15:26:10;1594765582.359241;portraitUpsideDown;-0.8684234619140625;1.02545166015625;-0.0807952880859375;
2020-07-14 15:26:10;1594765582.398118;portraitUpsideDown;-0.78790283203125;1.0818328857421875;-0.0537261962890625;
2020-07-14 15:26:10;1594765582.437927;portraitUpsideDown;-0.7137298583984375;1.148193359375;-0.0921630859375;
2020-07-14 15:26:10;1594765582.478427;portraitUpsideDown;-0.75146484375;1.3073272705078125;0.035797119140625;
2020-07-14 15:26:10;1594765582.51715;portraitUpsideDown;-0.69757080078125;1.5924530029296875;-0.0194854736328125;
2020-07-14 15:26:10;1594765582.5590649;portraitUpsideDown;0.641448974609375;1.68511962890625;0.12286376953125;
2020-07-14 15:26:10;1594765582.597913;portraitUpsideDown;1.634613037109375;1.3868408203125;0.1568756103515625;
2020-07-14 15:26:10;1594765582.63852;portraitUpsideDown;0.4529571533203125;1.3077850341796875;-0.1873016357421875;
2020-07-14 15:26:10;1594765582.678936;portraitUpsideDown;0.08514404296875;1.2116241455078125;-0.0047760009765625;
2020-07-14 15:26:10;1594765582.7182322;portraitUpsideDown;0.157928466796875;1.2283782958984375;-0.122344970703125;
2020-07-14 15:26:10;1594765582.759293;portraitUpsideDown;-0.1084136962890625;1.2745819091796875;-0.5139007568359375;
2020-07-14 15:26:10;1594765582.798637;portraitUpsideDown;-0.5888214111328125;1.623504638671875;-0.8088226318359375;
2020-07-14 15:26:10;1594765582.837832;portraitUpsideDown;-0.62835693359375;1.4539794921875;-0.9283447265625;
2020-07-14 15:26:10;1594765582.8783112;portraitUpsideDown;-0.8096923828125;1.173858642578125;-0.522613525390625;
2020-07-14 15:26:10;1594765582.917352;portraitUpsideDown;-0.9743499755859375;0.974884033203125;-0.1719512939453125;
2020-07-14 15:26:10;1594765582.959293;portraitUpsideDown;-0.8644256591796875;0.8766937255859375;0.035186767578125;
2020-07-14 15:26:10;1594765582.9988241;portraitUpsideDown;-0.6526947021484375;0.846954345703125;0.12457275390625;
2020-07-14 15:26:10;1594765583.03893;portraitUpsideDown;-0.644195556640625;0.7931060791015625;0.0797882080078125;
2020-07-14 15:26:10;1594765583.0791059;portraitUpsideDown;-0.661895751953125;0.7013702392578125;0.01068115234375;
2020-07-14 15:26:10;1594765583.118033;portraitUpsideDown;-0.695037841796875;0.71356201171875;-0.0264892578125;
2020-07-14 15:26:10;1594765583.158867;portraitUpsideDown;-0.6984405517578125;0.9171600341796875;0.084686279296875;
2020-07-14 15:26:10;1594765583.198338;portraitUpsideDown;-0.785247802734375;1.2187347412109375;-0.0406341552734375;
2020-07-14 15:26:10;1594765583.238078;portraitUpsideDown;-1.0390167236328125;1.2281951904296875;-0.145263671875;
2020-07-14 15:26:10;1594765583.278965;portraitUpsideDown;-1.2219696044921875;1.0426025390625;0.123321533203125;
2020-07-14 15:26:10;1594765583.3180819;portraitUpsideDown;-1.204010009765625;1.102264404296875;0.31488037109375;
2020-07-14 15:26:10;1594765583.359452;portraitUpsideDown;-0.809051513671875;1.2717742919921875;0.0767669677734375;
2020-07-14 15:26:10;1594765583.3987222;portraitUpsideDown;-0.6876678466796875;1.460845947265625;-0.2066650390625;
2020-07-14 15:26:10;1594765583.439126;portraitUpsideDown;-0.67230224609375;1.5508880615234375;-0.2852325439453125;
2020-07-14 15:26:10;1594765583.4790149;portraitUpsideDown;-0.619720458984375;1.450286865234375;-0.2266082763671875;
2020-07-14 15:26:10;1594765583.51933;portraitUpsideDown;-0.577972412109375;1.196685791015625;-0.3871917724609375;
2020-07-14 15:26:10;1594765583.5595732;portraitUpsideDown;-0.6228179931640625;1.0447235107421875;-0.5493927001953125;
2020-07-14 15:26:10;1594765583.59662;portraitUpsideDown;-0.73699951171875;1.1148834228515625;-0.452178955078125;
2020-07-14 15:26:10;1594765583.638972;portraitUpsideDown;-0.693115234375;1.3514404296875;-0.323028564453125;
2020-07-14 15:26:10;1594765583.6749802;portraitUpsideDown;-0.3643798828125;1.3435211181640625;-0.3474884033203125;
2020-07-14 15:26:10;1594765583.715057;portraitUpsideDown;-0.232025146484375;1.305328369140625;-0.4646148681640625;
2020-07-14 15:26:10;1594765583.7576919;portraitUpsideDown;0.0877532958984375;1.0975189208984375;-0.3652496337890625;
2020-07-14 15:26:10;1594765583.798413;portraitUpsideDown;0.496551513671875;0.785430908203125;0.075927734375;
2020-07-14 15:26:10;1594765583.839561;portraitUpsideDown;0.4904022216796875;0.8358612060546875;0.3317718505859375;
2020-07-14 15:26:10;1594765583.879878;portraitUpsideDown;0.333770751953125;0.94879150390625;0.084014892578125;
2020-07-14 15:26:10;1594765583.919184;portraitUpsideDown;-0.063079833984375;1.4078826904296875;-0.029266357421875;
2020-07-14 15:26:10;1594765583.9602032;portraitUpsideDown;-0.4683990478515625;1.7584381103515625;0.1033172607421875;
2020-07-14 15:26:10;1594765583.999644;portraitUpsideDown;-0.6871337890625;1.7473907470703125;0.2391815185546875;
2020-07-14 15:26:10;1594765584.0393538;portraitUpsideDown;-0.8464813232421875;1.5158233642578125;0.2046661376953125;
2020-07-14 15:26:10;1594765584.079924;portraitUpsideDown;-0.87994384765625;1.44769287109375;0.067352294921875;
2020-07-14 15:26:10;1594765584.1193252;portraitUpsideDown;-0.878021240234375;1.417022705078125;0.11474609375;
2020-07-14 15:26:10;1594765584.159381;portraitUpsideDown;-0.941192626953125;1.4011993408203125;-0.0584716796875;
2020-07-14 15:26:10;1594765584.192199;portraitUpsideDown;-1.125457763671875;1.37725830078125;-0.1661834716796875;
2020-07-14 15:26:10;1594765584.2395911;portraitUpsideDown;-1.320037841796875;1.2696075439453125;-0.04290771484375;
2020-07-14 15:26:10;1594765584.2801042;portraitUpsideDown;-1.297027587890625;1.0053558349609375;-0.0394287109375;
2020-07-14 15:26:10;1594765584.318997;portraitUpsideDown;-1.2819976806640625;0.8951416015625;0.0016326904296875;
2020-07-14 15:26:10;1594765584.359633;portraitUpsideDown;-1.1681976318359375;1.1006927490234375;-0.0189971923828125;
2020-07-14 15:26:10;1594765584.398841;portraitUpsideDown;-1.0254669189453125;1.125;-0.0799102783203125;
2020-07-14 15:26:10;1594765584.438418;portraitUpsideDown;-1.0209197998046875;1.4591522216796875;-0.1691741943359375;
2020-07-14 15:26:10;1594765584.480044;portraitUpsideDown;-0.9757843017578125;1.768951416015625;-0.1898193359375;
2020-07-14 15:26:10;1594765584.5199342;portraitUpsideDown;-0.88330078125;1.860137939453125;-0.2720947265625;
2020-07-14 15:26:10;1594765584.560811;portraitUpsideDown;-0.7002410888671875;1.7807464599609375;-0.3245391845703125;
2020-07-14 15:26:10;1594765584.598872;portraitUpsideDown;-0.5537261962890625;1.6725921630859375;-0.282928466796875;
2020-07-14 15:26:10;1594765584.64027;portraitUpsideDown;-0.4010009765625;1.5454559326171875;-0.2309417724609375;
2020-07-14 15:26:10;1594765584.679103;portraitUpsideDown;-0.2905731201171875;1.3256988525390625;-0.2611236572265625;
2020-07-14 15:26:10;1594765584.7198858;portraitUpsideDown;-0.2397308349609375;1.214569091796875;-0.23394775390625;
2020-07-14 15:26:10;1594765584.760367;portraitUpsideDown;-0.16571044921875;1.0960693359375;-0.167327880859375;
2020-07-14 15:26:10;1594765584.799825;portraitUpsideDown;-0.03314208984375;0.9306793212890625;-0.13311767578125;
2020-07-14 15:26:10;1594765584.837799;portraitUpsideDown;0.0760955810546875;0.702667236328125;-0.1055145263671875;
2020-07-14 15:26:10;1594765584.8800812;portraitUpsideDown;0.0335540771484375;0.778472900390625;-0.010345458984375;
2020-07-14 15:26:10;1594765584.920168;portraitUpsideDown;0.137786865234375;0.7509613037109375;-0.0282745361328125;
2020-07-14 15:26:10;1594765584.958905;portraitUpsideDown;-0.139556884765625;0.937469482421875;0.0192718505859375;
2020-07-14 15:26:10;1594765584.998996;portraitUpsideDown;-0.252349853515625;1.299285888671875;0.0535125732421875;
2020-07-14 15:26:10;1594765585.039589;portraitUpsideDown;-0.392181396484375;1.676300048828125;-0.054718017578125;
2020-07-14 15:26:10;1594765585.0799608;portraitUpsideDown;-0.7198486328125;1.7441558837890625;-0.1204986572265625;
2020-07-14 15:26:10;1594765585.119791;portraitUpsideDown;-0.9493865966796875;1.6277313232421875;-0.041015625;
2020-07-14 15:26:10;1594765585.1604981;portraitUpsideDown;-0.9575958251953125;1.52752685546875;0.0152130126953125;
2020-07-14 15:26:10;1594765585.198734;portraitUpsideDown;-1.0068817138671875;1.44744873046875;-0.1021270751953125;
2020-07-14 15:26:10;1594765585.240399;portraitUpsideDown;-1.16998291015625;1.3000640869140625;-0.12933349609375;
2020-07-14 15:26:10;1594765585.273706;portraitUpsideDown;-1.3497772216796875;1.2427215576171875;-0.07452392578125;
2020-07-14 15:26:10;1594765585.320169;portraitUpsideDown;-1.284576416015625;1.1201171875;-0.0977020263671875;
2020-07-14 15:26:10;1594765585.359851;portraitUpsideDown;-1.097381591796875;0.9181671142578125;-0.1386871337890625;
2020-07-14 15:26:10;1594765585.399415;portraitUpsideDown;-1.1001434326171875;0.9464569091796875;-0.095611572265625;
2020-07-14 15:26:10;1594765585.439923;portraitUpsideDown;-1.0661163330078125;0.9239501953125;-0.049041748046875;
2020-07-14 15:26:10;1594765585.479545;portraitUpsideDown;-1.0639801025390625;1.1789703369140625;-0.03118896484375;
2020-07-14 15:26:10;1594765585.520488;portraitUpsideDown;-1.07769775390625;1.626068115234375;-0.18133544921875;
2020-07-14 15:26:10;1594765585.559352;portraitUpsideDown;-1.0066680908203125;2.113006591796875;-0.2368316650390625;
2020-07-14 15:26:10;1594765585.601071;portraitUpsideDown;-1.077850341796875;2.4327392578125;-0.3799591064453125;
2020-07-14 15:26:10;1594765585.6403751;portraitUpsideDown;-0.494171142578125;2.384674072265625;-0.0481109619140625;
2020-07-14 15:26:10;1594765585.680013;portraitUpsideDown;0.363311767578125;1.686614990234375;0.7133331298828125;
2020-07-14 15:26:10;1594765585.7207541;portraitUpsideDown;0.5068817138671875;1.07574462890625;0.8119964599609375;
2020-07-14 15:26:10;1594765585.759778;portraitUpsideDown;0.173248291015625;0.8903350830078125;0.46435546875;
2020-07-14 15:26:10;1594765585.799343;portraitUpsideDown;0.067962646484375;0.87548828125;0.14715576171875;
2020-07-14 15:26:10;1594765585.840163;portraitUpsideDown;0.0168304443359375;0.9579925537109375;0.115570068359375;
2020-07-14 15:26:10;1594765585.879181;portraitUpsideDown;-0.1978759765625;1.1175384521484375;0.093841552734375;
2020-07-14 15:26:10;1594765585.9203339;portraitUpsideDown;-0.51141357421875;1.150634765625;-0.136749267578125;
2020-07-14 15:26:10;1594765585.9602652;portraitUpsideDown;-0.6134033203125;1.22247314453125;-0.1440582275390625;
2020-07-14 15:26:10;1594765585.9998112;portraitUpsideDown;-0.5187530517578125;1.214202880859375;-0.1475982666015625;
2020-07-14 15:26:10;1594765586.040217;portraitUpsideDown;-0.65673828125;1.3487548828125;-0.1533660888671875;
2020-07-14 15:26:10;1594765586.079977;portraitUpsideDown;-0.8012237548828125;1.3503570556640625;-0.0909881591796875;
2020-07-14 15:26:10;1594765586.119627;portraitUpsideDown;-0.8303985595703125;1.00518798828125;0.0392913818359375;
2020-07-14 15:26:10;1594765586.16109;portraitUpsideDown;-0.9207611083984375;0.7554473876953125;0.0560455322265625;
2020-07-14 15:26:10;1594765586.2002668;portraitUpsideDown;-0.7739105224609375;0.8798675537109375;-0.2857208251953125;
2020-07-14 15:26:10;1594765586.241617;portraitUpsideDown;-0.7293243408203125;1.058013916015625;-0.5966796875;
2020-07-14 15:26:10;1594765586.280984;portraitUpsideDown;-0.8285064697265625;1.08502197265625;-0.5361480712890625;
2020-07-14 15:26:10;1594765586.320417;portraitUpsideDown;-0.8448638916015625;0.9490509033203125;-0.6713714599609375;
2020-07-14 15:26:10;1594765586.360053;portraitUpsideDown;-0.8180999755859375;0.8907012939453125;-0.628631591796875;
2020-07-14 15:26:10;1594765586.400103;portraitUpsideDown;-0.9331817626953125;0.893829345703125;-0.7602691650390625;
2020-07-14 15:26:10;1594765586.440387;portraitUpsideDown;-1.40264892578125;0.728668212890625;-0.5448760986328125;
2020-07-14 15:26:10;1594765586.4808578;portraitUpsideDown;-1.6301422119140625;0.648834228515625;-0.2687835693359375;
2020-07-14 15:26:10;1594765586.520875;portraitUpsideDown;-1.367919921875;0.764068603515625;-0.0934600830078125;
2020-07-14 15:26:10;1594765586.5607738;portraitUpsideDown;-1.19012451171875;1.26861572265625;-0.2736663818359375;
2020-07-14 15:26:10;1594765586.5996609;portraitUpsideDown;-1.1064910888671875;1.6140899658203125;-0.48370361328125;
2020-07-14 15:26:10;1594765586.6404781;portraitUpsideDown;-1.0296783447265625;1.7324981689453125;-0.4973297119140625;
2020-07-14 15:26:10;1594765586.6742191;portraitUpsideDown;-0.9596710205078125;1.750152587890625;-0.3398284912109375;
2020-07-14 15:26:10;1594765586.7201018;portraitUpsideDown;-0.7546539306640625;1.7624969482421875;-0.18975830078125;
2020-07-14 15:26:10;1594765586.760781;portraitUpsideDown;-0.4965057373046875;1.581512451171875;-0.1293487548828125;
2020-07-14 15:26:10;1594765586.8004699;portraitUpsideDown;-0.3031768798828125;1.2504425048828125;-0.0782318115234375;
2020-07-14 15:26:10;1594765586.840564;portraitUpsideDown;-0.1065521240234375;0.975006103515625;-0.0418243408203125;
2020-07-14 15:26:10;1594765586.880962;portraitUpsideDown;0.052764892578125;0.7564544677734375;-0.0155181884765625;
2020-07-14 15:26:10;1594765586.918992;portraitUpsideDown;0.15863037109375;0.60546875;0.02935791015625;
2020-07-14 15:26:10;1594765586.9612532;portraitUpsideDown;0.1378173828125;0.558349609375;-0.022247314453125;
2020-07-14 15:26:10;1594765586.99995;portraitUpsideDown;-0.06964111328125;0.7929229736328125;-0.050445556640625;
2020-07-14 15:26:10;1594765587.041853;portraitUpsideDown;-0.1822052001953125;1.0004119873046875;0.039520263671875;
2020-07-14 15:26:10;1594765587.080624;portraitUpsideDown;-0.457916259765625;1.3808746337890625;0.2669525146484375;
2020-07-14 15:26:10;1594765587.113974;portraitUpsideDown;-0.8762969970703125;1.8035888671875;0.4441986083984375;
2020-07-14 15:26:10;1594765587.161382;portraitUpsideDown;-1.0377197265625;1.9308929443359375;0.0711822509765625;
2020-07-14 15:26:10;1594765587.200619;portraitUpsideDown;-1.102264404296875;1.6891021728515625;-0.1852874755859375;
2020-07-14 15:26:10;1594765587.241152;portraitUpsideDown;-1.141204833984375;1.386322021484375;-0.06768798828125;
2020-07-14 15:26:10;1594765587.2811198;portraitUpsideDown;-1.06744384765625;1.3457794189453125;-0.1271209716796875;
2020-07-14 15:26:10;1594765587.321337;portraitUpsideDown;-1.094879150390625;1.1372528076171875;0.06427001953125;
2020-07-14 15:26:10;1594765587.361693;portraitUpsideDown;-1.223052978515625;0.861785888671875;0.1116790771484375;
2020-07-14 15:26:10;1594765587.4006371;portraitUpsideDown;-1.196197509765625;0.8040313720703125;0.0771026611328125;
2020-07-14 15:26:10;1594765587.43921;portraitUpsideDown;-1.0231781005859375;0.8105316162109375;0.2746734619140625;
2020-07-14 15:26:10;1594765587.4810848;portraitUpsideDown;-1.04852294921875;0.6450042724609375;0.3480987548828125;
2020-07-14 15:26:10;1594765587.520265;portraitUpsideDown;-1.15667724609375;0.7399444580078125;0.1729736328125;
2020-07-14 15:26:10;1594765587.562115;portraitUpsideDown;-1.0796356201171875;0.7649993896484375;0.0165557861328125;
2020-07-14 15:26:10;1594765587.601002;portraitUpsideDown;-1.1211700439453125;0.88494873046875;-0.0494232177734375;
2020-07-14 15:26:10;1594765587.641762;portraitUpsideDown;-1.2243194580078125;1.236968994140625;-0.1626129150390625;
2020-07-14 15:26:10;1594765587.6809921;portraitUpsideDown;-1.13824462890625;1.6083526611328125;-0.2496490478515625;
2020-07-14 15:26:10;1594765587.7220058;portraitUpsideDown;-1.025482177734375;1.822174072265625;-0.338958740234375;
2020-07-14 15:26:10;1594765587.7634568;portraitUpsideDown;-0.817169189453125;1.8663482666015625;-0.451751708984375;
2020-07-14 15:26:10;1594765587.801567;portraitUpsideDown;-0.5289459228515625;1.6992645263671875;-0.51934814453125;
2020-07-14 15:26:10;1594765587.8410568;portraitUpsideDown;-0.3816070556640625;1.4546356201171875;-0.4104766845703125;
2020-07-14 15:26:10;1594765587.881966;portraitUpsideDown;-0.179779052734375;1.1002960205078125;-0.3819122314453125;
2020-07-14 15:26:10;1594765587.920926;portraitUpsideDown;-0.15020751953125;0.881988525390625;-0.2389984130859375;
2020-07-14 15:26:10;1594765587.9611192;portraitUpsideDown;-0.20599365234375;0.72393798828125;-0.2420654296875;
2020-07-14 15:26:10;1594765588.001729;portraitUpsideDown;-0.1689300537109375;0.6214447021484375;-0.319061279296875;
2020-07-14 15:26:10;1594765588.0414271;portraitUpsideDown;-0.2301483154296875;0.6403961181640625;-0.3288726806640625;
2020-07-14 15:26:10;1594765588.081905;portraitUpsideDown;-0.1722564697265625;0.7015838623046875;-0.20416259765625;
2020-07-14 15:26:10;1594765588.12165;portraitUpsideDown;-0.16619873046875;0.813934326171875;-0.03912353515625;
2020-07-14 15:26:10;1594765588.16418;portraitUpsideDown;-0.4233245849609375;0.9372711181640625;0.0757598876953125;
2020-07-14 15:26:10;1594765588.201291;portraitUpsideDown;-0.5968170166015625;1.18133544921875;0.0606689453125;
2020-07-14 15:26:10;1594765588.241321;portraitUpsideDown;-0.7256317138671875;1.4333648681640625;-0.0675506591796875;
2020-07-14 15:26:10;1594765588.281472;portraitUpsideDown;-0.953948974609375;1.3980865478515625;0.01611328125;
2020-07-14 15:26:10;1594765588.320578;portraitUpsideDown;-1.139129638671875;1.25067138671875;0.226959228515625;
2020-07-14 15:26:10;1594765588.3625998;portraitUpsideDown;-1.1922760009765625;1.1759796142578125;0.252349853515625;
2020-07-14 15:26:10;1594765588.4016151;portraitUpsideDown;-1.172119140625;1.087158203125;0.207672119140625;
2020-07-14 15:26:10;1594765588.4420838;portraitUpsideDown;-1.1398773193359375;0.9589996337890625;0.3478546142578125;
2020-07-14 15:26:10;1594765588.484106;portraitUpsideDown;-1.0798797607421875;0.8115234375;0.405242919921875;
2020-07-14 15:26:10;1594765588.5223541;portraitUpsideDown;-0.93414306640625;0.824951171875;0.33929443359375;
2020-07-14 15:26:10;1594765588.563978;portraitUpsideDown;-0.7756805419921875;0.7403564453125;0.2758941650390625;
2020-07-14 15:26:10;1594765588.601933;portraitUpsideDown;-0.7411651611328125;0.6987457275390625;0.0932464599609375;
2020-07-14 15:26:10;1594765588.641951;portraitUpsideDown;-0.7801666259765625;0.905487060546875;-0.0989532470703125;
2020-07-14 15:26:10;1594765588.681838;portraitUpsideDown;-0.767608642578125;1.155242919921875;-0.4042816162109375;
2020-07-14 15:26:10;1594765588.721606;portraitUpsideDown;-0.590911865234375;1.0680084228515625;-0.614532470703125;
2020-07-14 15:26:10;1594765588.7625709;portraitUpsideDown;-0.537384033203125;0.787261962890625;-0.5289306640625;
2020-07-14 15:26:10;1594765588.80197;portraitUpsideDown;-0.91375732421875;0.7086181640625;-0.5933685302734375;
2020-07-14 15:26:10;1594765588.8422709;portraitUpsideDown;-0.8878936767578125;0.7244110107421875;-0.9753570556640625;
2020-07-14 15:26:10;1594765588.883667;portraitUpsideDown;-0.720916748046875;0.8287506103515625;-0.94580078125;
2020-07-14 15:26:10;1594765588.922524;portraitUpsideDown;-0.797088623046875;0.9200286865234375;-0.9406585693359375;
2020-07-14 15:26:10;1594765588.9642859;portraitUpsideDown;-0.9020538330078125;0.964141845703125;-0.9571990966796875;
2020-07-14 15:26:10;1594765589.003905;portraitUpsideDown;-0.87506103515625;1.0642242431640625;-1.0168914794921875;
2020-07-14 15:26:10;1594765589.0443401;portraitUpsideDown;-0.8221588134765625;1.1743316650390625;-0.813262939453125;
2020-07-14 15:26:10;1594765589.08388;portraitUpsideDown;-0.8369140625;1.3403472900390625;-0.5738525390625;
2020-07-14 15:26:10;1594765589.123698;portraitUpsideDown;-0.72991943359375;1.412200927734375;-0.5309906005859375;
2020-07-14 15:26:10;1594765589.163014;portraitUpsideDown;-0.4055328369140625;1.3979034423828125;-0.494232177734375;
2020-07-14 15:26:10;1594765589.201896;portraitUpsideDown;-0.105438232421875;1.25054931640625;-0.2567901611328125;
2020-07-14 15:26:10;1594765589.2360702;portraitUpsideDown;0.2401275634765625;1.0571136474609375;0.1170196533203125;
2020-07-14 15:26:10;1594765589.2847319;portraitUpsideDown;0.31298828125;1.1161956787109375;0.1124114990234375;
2020-07-14 15:26:10;1594765589.3227448;portraitUpsideDown;0.0388031005859375;1.159027099609375;0.036285400390625;
2020-07-14 15:26:10;1594765589.3648329;portraitUpsideDown;-0.0955963134765625;1.2250823974609375;0.3114013671875;
2020-07-14 15:26:10;1594765589.401349;portraitUpsideDown;-0.240875244140625;1.2122955322265625;0.27008056640625;
2020-07-14 15:26:10;1594765589.44459;portraitUpsideDown;-0.4454345703125;1.240509033203125;0.38134765625;
2020-07-14 15:26:10;1594765589.482541;portraitUpsideDown;-0.6054229736328125;1.272064208984375;0.5914764404296875;
2020-07-14 15:26:10;1594765589.523623;portraitUpsideDown;-0.78216552734375;1.279571533203125;0.4616546630859375;
2020-07-14 15:26:10;1594765589.562639;portraitUpsideDown;-0.9079132080078125;1.25677490234375;0.26629638671875;
2020-07-14 15:26:10;1594765589.6036;portraitUpsideDown;-0.90167236328125;1.202911376953125;0.125732421875;
2020-07-14 15:26:10;1594765589.6427798;portraitUpsideDown;-0.8455047607421875;1.0792388916015625;0.0446319580078125;
2020-07-14 15:26:10;1594765589.684073;portraitUpsideDown;-0.9111480712890625;0.9759368896484375;0.0725860595703125;
2020-07-14 15:26:10;1594765589.723258;portraitUpsideDown;-0.964813232421875;0.9202728271484375;0.0896453857421875;
2020-07-14 15:26:10;1594765589.763464;portraitUpsideDown;-1.0396575927734375;0.8651123046875;-0.0442352294921875;
2020-07-14 15:26:10;1594765589.8025699;portraitUpsideDown;-1.0451507568359375;0.82281494140625;-0.19696044921875;
2020-07-14 15:26:10;1594765589.844641;portraitUpsideDown;-1.103363037109375;0.7753448486328125;-0.1324005126953125;
2020-07-14 15:26:10;1594765589.8829498;portraitUpsideDown;-1.1009063720703125;1.0249176025390625;-0.06451416015625;
2020-07-14 15:26:10;1594765589.924014;portraitUpsideDown;-1.077056884765625;1.3935546875;-0.11163330078125;
2020-07-14 15:26:10;1594765589.9636059;portraitUpsideDown;-1.0796966552734375;1.590118408203125;-0.2459716796875;
2020-07-14 15:26:10;1594765590.004219;portraitUpsideDown;-1.0848236083984375;1.741119384765625;-0.3383636474609375;
2020-07-14 15:26:10;1594765590.0441709;portraitUpsideDown;-0.974456787109375;1.8298187255859375;-0.3262176513671875;
2020-07-14 15:26:10;1594765590.084676;portraitUpsideDown;-0.741607666015625;1.7919158935546875;-0.287200927734375;
2020-07-14 15:26:10;1594765590.123713;portraitUpsideDown;-0.4231414794921875;1.505279541015625;-0.244903564453125;
2020-07-14 15:26:10;1594765590.163704;portraitUpsideDown;-0.2703094482421875;1.2079010009765625;-0.1666259765625;
2020-07-14 15:26:10;1594765590.202404;portraitUpsideDown;-0.17974853515625;0.9661865234375;-0.09283447265625;
2020-07-14 15:26:10;1594765590.2442589;portraitUpsideDown;0.0249481201171875;0.81268310546875;0.09393310546875;
2020-07-14 15:26:10;1594765590.282514;portraitUpsideDown;0.3011322021484375;0.675811767578125;0.2077789306640625;
2020-07-14 15:26:10;1594765590.324898;portraitUpsideDown;0.2143707275390625;0.6991729736328125;0.0733184814453125;
2020-07-14 15:26:10;1594765590.36392;portraitUpsideDown;-0.0229949951171875;0.875213623046875;0.0956573486328125;
2020-07-14 15:26:10;1594765590.404409;portraitUpsideDown;-0.3540496826171875;1.0485382080078125;0.12530517578125;
2020-07-14 15:26:10;1594765590.444484;portraitUpsideDown;-0.57977294921875;1.3827056884765625;0.0500640869140625;
2020-07-14 15:26:10;1594765590.484447;portraitUpsideDown;-0.6565704345703125;1.5097198486328125;-0.042572021484375;
2020-07-14 15:26:10;1594765590.5234342;portraitUpsideDown;-0.743927001953125;1.401458740234375;-0.140045166015625;
2020-07-14 15:26:10;1594765590.5653548;portraitUpsideDown;-0.8256378173828125;1.3916473388671875;-0.0806427001953125;
2020-07-14 15:26:10;1594765590.603757;portraitUpsideDown;-0.91949462890625;1.38482666015625;0.0240325927734375;
2020-07-14 15:26:10;1594765590.64532;portraitUpsideDown;-1.0878753662109375;1.2142486572265625;-0.04437255859375;
2020-07-14 15:26:10;1594765590.6832871;portraitUpsideDown;-1.34613037109375;1.0771942138671875;-0.2947235107421875;
2020-07-14 15:26:10;1594765590.724479;portraitUpsideDown;-1.5097198486328125;1.12554931640625;-0.51251220703125;
2020-07-14 15:26:10;1594765590.76388;portraitUpsideDown;-1.22412109375;1.1395721435546875;-0.2021636962890625;
2020-07-14 15:26:10;1594765590.804103;portraitUpsideDown;-1.03204345703125;1.0221099853515625;-0.051483154296875;
2020-07-14 15:26:10;1594765590.843913;portraitUpsideDown;-1.038177490234375;1.03326416015625;-0.244537353515625;
2020-07-14 15:26:10;1594765590.885052;portraitUpsideDown;-0.914093017578125;1.1066131591796875;-0.3244476318359375;
2020-07-14 15:26:10;1594765590.923831;portraitUpsideDown;-0.829833984375;1.107086181640625;-0.16278076171875;
2020-07-14 15:26:10;1594765590.965598;portraitUpsideDown;-0.8688812255859375;1.3803558349609375;-0.2022857666015625;
2020-07-14 15:26:10;1594765591.004161;portraitUpsideDown;-0.6747283935546875;1.5462188720703125;-0.3583526611328125;
2020-07-14 15:26:10;1594765591.04636;portraitUpsideDown;-0.5122833251953125;1.3585662841796875;-0.3949432373046875;
2020-07-14 15:26:10;1594765591.0775099;portraitUpsideDown;-0.5185089111328125;1.183349609375;-0.42108154296875;
2020-07-14 15:26:10;1594765591.124353;portraitUpsideDown;-0.5267791748046875;1.1880950927734375;-0.3806915283203125;
2020-07-14 15:26:10;1594765591.163714;portraitUpsideDown;-0.4936065673828125;1.203826904296875;-0.27459716796875;
2020-07-14 15:26:10;1594765591.204962;portraitUpsideDown;-0.431732177734375;1.142181396484375;-0.206207275390625;
2020-07-14 15:26:10;1594765591.244503;portraitUpsideDown;-0.4162750244140625;1.112335205078125;-0.1939697265625;
2020-07-14 15:26:10;1594765591.285078;portraitUpsideDown;-0.3631439208984375;1.091064453125;-0.124786376953125;
2020-07-14 15:26:10;1594765591.3253288;portraitUpsideDown;-0.171875;0.9735260009765625;-0.0367279052734375;
2020-07-14 15:26:10;1594765591.365685;portraitUpsideDown;0.049285888671875;0.7096405029296875;-0.0281982421875;
2020-07-14 15:26:10;1594765591.40274;portraitUpsideDown;0.0703125;0.6180572509765625;0.0621795654296875;
2020-07-14 15:26:10;1594765591.4457412;portraitUpsideDown;0.1109161376953125;0.58984375;0.158966064453125;
2020-07-14 15:26:10;1594765591.4836369;portraitUpsideDown;-0.1634979248046875;0.852325439453125;-6.103515625e-05;
2020-07-14 15:26:10;1594765591.5248199;portraitUpsideDown;-0.3800506591796875;1.188262939453125;-0.029388427734375;
2020-07-14 15:26:10;1594765591.566104;portraitUpsideDown;-0.60638427734375;1.288177490234375;0.0850982666015625;
2020-07-14 15:26:10;1594765591.604048;portraitUpsideDown;-0.677978515625;1.2449951171875;0.083953857421875;
2020-07-14 15:26:10;1594765591.646151;portraitUpsideDown;-0.6953125;1.4138641357421875;-0.2344512939453125;
2020-07-14 15:26:10;1594765591.684494;portraitUpsideDown;-0.813232421875;1.6179962158203125;-0.444976806640625;
2020-07-14 15:26:10;1594765591.726574;portraitUpsideDown;-0.9292449951171875;1.4779205322265625;-0.344940185546875;
2020-07-14 15:26:10;1594765591.766546;portraitUpsideDown;-1.132537841796875;1.3079833984375;-0.30792236328125;
2020-07-14 15:26:10;1594765591.805598;portraitUpsideDown;-1.2506866455078125;1.093017578125;-0.416107177734375;
2020-07-14 15:26:10;1594765591.844977;portraitUpsideDown;-1.10321044921875;1.094451904296875;-0.276275634765625;
2020-07-14 15:26:10;1594765591.884933;portraitUpsideDown;-0.7646636962890625;0.995269775390625;-0.0579376220703125;
2020-07-14 15:26:10;1594765591.924622;portraitUpsideDown;-0.5909881591796875;0.780731201171875;-0.0977325439453125;
2020-07-14 15:26:10;1594765591.9665399;portraitUpsideDown;-0.6328125;0.8630828857421875;-0.3912200927734375;
2020-07-14 15:26:10;1594765592.005723;portraitUpsideDown;-0.707122802734375;1.09893798828125;-0.4991455078125;
2020-07-14 15:26:10;1594765592.047004;portraitUpsideDown;-0.8107147216796875;1.2670135498046875;-0.6542510986328125;
2020-07-14 15:26:10;1594765592.085936;portraitUpsideDown;-0.972625732421875;1.2477874755859375;-0.4399566650390625;
2020-07-14 15:26:10;1594765592.1267118;portraitUpsideDown;-1.0627593994140625;1.378143310546875;-0.4464874267578125;
2020-07-14 15:26:10;1594765592.166601;portraitUpsideDown;-0.9218597412109375;1.675994873046875;-0.481292724609375;
2020-07-14 15:26:10;1594765592.205364;portraitUpsideDown;-0.7507781982421875;1.832366943359375;-0.500335693359375;
2020-07-14 15:26:10;1594765592.247201;portraitUpsideDown;-0.658233642578125;1.8099365234375;-0.4330902099609375;
2020-07-14 15:26:10;1594765592.286048;portraitUpsideDown;-0.4749908447265625;1.7234954833984375;-0.3508148193359375;
2020-07-14 15:26:10;1594765592.325398;portraitUpsideDown;-0.228424072265625;1.56072998046875;-0.3072662353515625;
2020-07-14 15:26:10;1594765592.3673348;portraitUpsideDown;-0.0598907470703125;1.256927490234375;-0.3006591796875;
2020-07-14 15:26:10;1594765592.4056392;portraitUpsideDown;0.0449066162109375;0.9877166748046875;-0.112335205078125;
2020-07-14 15:26:10;1594765592.446064;portraitUpsideDown;0.2691650390625;0.7428436279296875;0.0901947021484375;
2020-07-14 15:26:10;1594765592.4860191;portraitUpsideDown;0.1898651123046875;0.796142578125;0.1408233642578125;
2020-07-14 15:26:10;1594765592.525034;portraitUpsideDown;0.15399169921875;0.8309173583984375;-0.1392822265625;
2020-07-14 15:26:10;1594765592.566523;portraitUpsideDown;-0.1664886474609375;1.1080780029296875;-0.0560302734375;
2020-07-14 15:26:10;1594765592.606691;portraitUpsideDown;-0.3728179931640625;1.3343505859375;0.162384033203125;
2020-07-14 15:26:10;1594765592.647907;portraitUpsideDown;-0.4902496337890625;1.461273193359375;-0.011871337890625;
2020-07-14 15:26:10;1594765592.686327;portraitUpsideDown;-0.6452484130859375;1.4648284912109375;-0.21087646484375;
2020-07-14 15:26:10;1594765592.726131;portraitUpsideDown;-0.7834625244140625;1.5143585205078125;-0.1984405517578125;
2020-07-14 15:26:10;1594765592.765626;portraitUpsideDown;-0.900360107421875;1.638031005859375;-0.0949249267578125;
2020-07-14 15:26:10;1594765592.806178;portraitUpsideDown;-0.9794464111328125;1.5894927978515625;-0.0491790771484375;
2020-07-14 15:26:10;1594765592.8461208;portraitUpsideDown;-1.0700225830078125;1.4669647216796875;-0.149505615234375;
2020-07-14 15:26:10;1594765592.8866448;portraitUpsideDown;-1.09112548828125;1.4618682861328125;-0.147003173828125;
2020-07-14 15:26:10;1594765592.926008;portraitUpsideDown;-1.1097412109375;1.24249267578125;-0.0171966552734375;
2020-07-14 15:26:10;1594765592.967056;portraitUpsideDown;-1.2542724609375;0.963775634765625;-0.048065185546875;
2020-07-14 15:26:10;1594765593.0059361;portraitUpsideDown;-1.2390289306640625;1.0013885498046875;-0.015106201171875;
2020-07-14 15:26:10;1594765593.04755;portraitUpsideDown;-1.0311279296875;0.93035888671875;0.0532684326171875;
2020-07-14 15:26:10;1594765593.087487;portraitUpsideDown;-1.00665283203125;1.132476806640625;-0.111053466796875;
2020-07-14 15:26:10;1594765593.1269689;portraitUpsideDown;-0.95556640625;1.3399505615234375;-0.260345458984375;
2020-07-14 15:26:10;1594765593.167348;portraitUpsideDown;-0.8232421875;1.4668121337890625;-0.3394622802734375;
2020-07-14 15:26:10;1594765593.207196;portraitUpsideDown;-0.7042388916015625;1.5249176025390625;-0.3748626708984375;
2020-07-14 15:26:10;1594765593.247601;portraitUpsideDown;-0.653289794921875;1.6466064453125;-0.3304901123046875;
2020-07-14 15:26:10;1594765593.286965;portraitUpsideDown;-0.5971527099609375;1.7262420654296875;-0.2803192138671875;
2020-07-14 15:26:10;1594765593.325904;portraitUpsideDown;-0.4846038818359375;1.575103759765625;-0.215057373046875;
2020-07-14 15:26:10;1594765593.3673;portraitUpsideDown;-0.3164215087890625;1.382598876953125;-0.1694793701171875;
2020-07-14 15:26:10;1594765593.407165;portraitUpsideDown;-0.2474365234375;1.21331787109375;-0.1181488037109375;
2020-07-14 15:26:10;1594765593.4478102;portraitUpsideDown;-0.0199432373046875;0.9725189208984375;-0.0587005615234375;
2020-07-14 15:26:10;1594765593.486703;portraitUpsideDown;0.08673095703125;0.778839111328125;-0.005645751953125;
2020-07-14 15:26:10;1594765593.526404;portraitUpsideDown;0.1498260498046875;0.9335784912109375;0.0270843505859375;
2020-07-14 15:26:10;1594765593.567411;portraitUpsideDown;0.1928558349609375;0.892333984375;-0.209747314453125;
2020-07-14 15:26:10;1594765593.607301;portraitUpsideDown;-0.171356201171875;1.0741424560546875;-0.143798828125;
2020-07-14 15:26:10;1594765593.646748;portraitUpsideDown;-0.437774658203125;1.2008209228515625;0.057647705078125;
2020-07-14 15:26:10;1594765593.687045;portraitUpsideDown;-0.5635528564453125;1.178131103515625;-0.0094146728515625;
2020-07-14 15:26:10;1594765593.727793;portraitUpsideDown;-0.651947021484375;1.0768585205078125;-0.144073486328125;
2020-07-14 15:26:10;1594765593.7676868;portraitUpsideDown;-0.7129974365234375;1.0862579345703125;-0.0152740478515625;
2020-07-14 15:26:10;1594765593.80708;portraitUpsideDown;-0.8013458251953125;1.2145843505859375;0.2396392822265625;
2020-07-14 15:26:10;1594765593.847793;portraitUpsideDown;-0.902923583984375;1.353912353515625;0.0010833740234375;
2020-07-14 15:26:10;1594765593.884002;portraitUpsideDown;-0.9570770263671875;1.4317779541015625;-0.2060699462890625;
2020-07-14 15:26:10;1594765593.9278522;portraitUpsideDown;-1.224090576171875;1.330810546875;-0.1598968505859375;
2020-07-14 15:26:10;1594765593.9674459;portraitUpsideDown;-1.45867919921875;1.118377685546875;0.09967041015625;
2020-07-14 15:26:10;1594765594.007016;portraitUpsideDown;-1.41900634765625;0.817047119140625;0.2023162841796875;
2020-07-14 15:26:10;1594765594.049124;portraitUpsideDown;-1.3852996826171875;1.0918426513671875;-0.0146942138671875;
2020-07-14 15:26:10;1594765594.087665;portraitUpsideDown;-1.00018310546875;1.1118621826171875;-0.191650390625;
2020-07-14 15:26:10;1594765594.128241;portraitUpsideDown;-0.86102294921875;1.1869964599609375;-0.3674468994140625;
2020-07-14 15:26:10;1594765594.167873;portraitUpsideDown;-0.860260009765625;1.3301544189453125;-0.3848876953125;
2020-07-14 15:26:10;1594765594.207055;portraitUpsideDown;-0.69085693359375;1.1843719482421875;-0.3394317626953125;
2020-07-14 15:26:10;1594765594.24846;portraitUpsideDown;-0.6348114013671875;0.970245361328125;-0.334991455078125;
2020-07-14 15:26:10;1594765594.288058;portraitUpsideDown;-0.71478271484375;1.0004730224609375;-0.3475189208984375;
2020-07-14 15:26:10;1594765594.3267941;portraitUpsideDown;-0.7245025634765625;1.240966796875;-0.2884979248046875;
2020-07-14 15:26:10;1594765594.370023;portraitUpsideDown;-0.6689605712890625;1.5680389404296875;-0.3320770263671875;
2020-07-14 15:26:10;1594765594.408046;portraitUpsideDown;-0.53436279296875;1.716827392578125;-0.4323272705078125;
2020-07-14 15:26:10;1594765594.448338;portraitUpsideDown;-0.4759521484375;1.5876312255859375;-0.429718017578125;
2020-07-14 15:26:10;1594765594.48821;portraitUpsideDown;-0.2083587646484375;1.29461669921875;-0.2414703369140625;
2020-07-14 15:26:10;1594765594.52747;portraitUpsideDown;0.244720458984375;0.909515380859375;-0.1990814208984375;
2020-07-14 15:26:10;1594765594.567744;portraitUpsideDown;0.341064453125;0.958099365234375;-0.0415191650390625;
2020-07-14 15:26:10;1594765594.608142;portraitUpsideDown;0.5086517333984375;0.638885498046875;0.1566619873046875;
2020-07-14 15:26:10;1594765594.648707;portraitUpsideDown;-0.0117034912109375;0.9285736083984375;0.176177978515625;
2020-07-14 15:26:10;1594765594.687918;portraitUpsideDown;-0.4012451171875;1.2741241455078125;0.12384033203125;
2020-07-14 15:26:10;1594765594.726688;portraitUpsideDown;-0.5701751708984375;1.411529541015625;0.249267578125;
2020-07-14 15:26:10;1594765594.768019;portraitUpsideDown;-0.714447021484375;1.306396484375;0.2996826171875;
2020-07-14 15:26:10;1594765594.807843;portraitUpsideDown;-0.80474853515625;1.3170928955078125;0.1098785400390625;
2020-07-14 15:26:10;1594765594.847606;portraitUpsideDown;-0.87835693359375;1.446563720703125;-0.043212890625;
2020-07-14 15:26:10;1594765594.8884149;portraitUpsideDown;-0.9366455078125;1.389068603515625;-0.0748291015625;
2020-07-14 15:26:10;1594765594.9281979;portraitUpsideDown;-1.1064605712890625;1.2191925048828125;-0.0974884033203125;
2020-07-14 15:26:10;1594765594.968348;portraitUpsideDown;-1.175872802734375;1.15045166015625;-0.0213775634765625;
2020-07-14 15:26:10;1594765595.0079641;portraitUpsideDown;-1.0094757080078125;1.1459808349609375;0.0914459228515625;
2020-07-14 15:26:10;1594765595.0478911;portraitUpsideDown;-0.7729949951171875;0.9977874755859375;0.0473785400390625;
2020-07-14 15:26:10;1594765595.0877352;portraitUpsideDown;-0.8299102783203125;1.0387115478515625;-0.15753173828125;
2020-07-14 15:26:10;1594765595.12848;portraitUpsideDown;-0.8867645263671875;0.9237060546875;-0.170166015625;
2020-07-14 15:26:10;1594765595.169138;portraitUpsideDown;-1.0542449951171875;1.0315399169921875;-0.0807952880859375;
2020-07-14 15:26:10;1594765595.209464;portraitUpsideDown;-1.1099395751953125;1.1498870849609375;-0.0411224365234375;
2020-07-14 15:26:10;1594765595.249109;portraitUpsideDown;-1.077606201171875;1.285308837890625;-0.244354248046875;
2020-07-14 15:26:10;1594765595.289377;portraitUpsideDown;-0.995025634765625;1.4453125;-0.2447662353515625;
2020-07-14 15:26:10;1594765595.329072;portraitUpsideDown;-0.9059295654296875;1.6943817138671875;-0.2464752197265625;
2020-07-14 15:26:10;1594765595.368149;portraitUpsideDown;-0.675933837890625;1.771209716796875;-0.2605133056640625;
2020-07-14 15:26:10;1594765595.408761;portraitUpsideDown;-0.384796142578125;1.557708740234375;-0.3288116455078125;
2020-07-14 15:26:10;1594765595.448669;portraitUpsideDown;-0.2340545654296875;1.2725677490234375;-0.32061767578125;
2020-07-14 15:26:10;1594765595.489077;portraitUpsideDown;-0.1720123291015625;1.0225830078125;-0.1810150146484375;
2020-07-14 15:26:10;1594765595.5281901;portraitUpsideDown;-0.088592529296875;0.804107666015625;-0.043731689453125;
2020-07-14 15:26:10;1594765595.568371;portraitUpsideDown;-0.0488739013671875;0.64495849609375;-0.08673095703125;
2020-07-14 15:26:10;1594765595.608583;portraitUpsideDown;-0.0878448486328125;0.7426910400390625;-0.0821533203125;
2020-07-14 15:26:10;1594765595.64961;portraitUpsideDown;-0.0454559326171875;0.770721435546875;-0.112091064453125;
2020-07-14 15:26:10;1594765595.688621;portraitUpsideDown;-0.2998504638671875;0.99212646484375;-0.1180419921875;
2020-07-14 15:26:10;1594765595.72844;portraitUpsideDown;-0.560760498046875;1.1613006591796875;-0.0054779052734375;
2020-07-14 15:26:10;1594765595.7689319;portraitUpsideDown;-0.6417236328125;1.1849517822265625;0.0815582275390625;
2020-07-14 15:26:10;1594765595.8086429;portraitUpsideDown;-0.672119140625;1.074432373046875;0.019500732421875;
2020-07-14 15:26:10;1594765595.849444;portraitUpsideDown;-0.7181549072265625;1.0644378662109375;-0.052490234375;
2020-07-14 15:26:10;1594765595.8887548;portraitUpsideDown;-0.743072509765625;1.1900634765625;-0.117218017578125;
2020-07-14 15:26:10;1594765595.929049;portraitUpsideDown;-0.772125244140625;1.3474273681640625;-0.229400634765625;
2020-07-14 15:26:10;1594765595.969646;portraitUpsideDown;-0.8467559814453125;1.3655548095703125;-0.266693115234375;
2020-07-14 15:26:10;1594765596.001729;portraitUpsideDown;-0.9911956787109375;1.3368682861328125;-0.199554443359375;
2020-07-14 15:26:10;1594765596.0494761;portraitUpsideDown;-1.0432281494140625;1.2435302734375;-0.151397705078125;
2020-07-14 15:26:10;1594765596.0888;portraitUpsideDown;-1.0353851318359375;1.0225830078125;-0.10498046875;
2020-07-14 15:26:10;1594765596.129112;portraitUpsideDown;-1.2198638916015625;1.020599365234375;-0.1686248779296875;
2020-07-14 15:26:10;1594765596.168725;portraitUpsideDown;-1.1266937255859375;0.8497161865234375;-0.1096038818359375;
2020-07-14 15:26:10;1594765596.2093968;portraitUpsideDown;-0.8864288330078125;0.806304931640625;-0.0496826171875;
2020-07-14 15:26:10;1594765596.250407;portraitUpsideDown;-0.7475738525390625;0.912017822265625;-0.1192779541015625;
2020-07-14 15:26:10;1594765596.289592;portraitUpsideDown;-0.724334716796875;1.080322265625;-0.208740234375;
2020-07-14 15:26:10;1594765596.329856;portraitUpsideDown;-0.6813812255859375;1.265533447265625;-0.3496551513671875;
2020-07-14 15:26:10;1594765596.369605;portraitUpsideDown;-0.678680419921875;1.286346435546875;-0.4247283935546875;
2020-07-14 15:26:10;1594765596.410835;portraitUpsideDown;-0.752838134765625;1.337493896484375;-0.3165740966796875;
2020-07-14 15:26:10;1594765596.4494948;portraitUpsideDown;-0.7083892822265625;1.43902587890625;-0.1986236572265625;
2020-07-14 15:26:10;1594765596.489637;portraitUpsideDown;-0.5327301025390625;1.4448394775390625;-0.27923583984375;
2020-07-14 15:26:10;1594765596.530249;portraitUpsideDown;-0.432830810546875;1.332122802734375;-0.2857818603515625;
2020-07-14 15:26:10;1594765596.570075;portraitUpsideDown;-0.4106597900390625;1.2000579833984375;-0.2641448974609375;
2020-07-14 15:26:10;1594765596.609762;portraitUpsideDown;-0.4489288330078125;1.044464111328125;-0.30413818359375;
2020-07-14 15:26:10;1594765596.650797;portraitUpsideDown;-0.4853668212890625;0.9763031005859375;-0.253997802734375;
2020-07-14 15:26:10;1594765596.6897879;portraitUpsideDown;-0.3599395751953125;0.8505706787109375;-0.1258544921875;
2020-07-14 15:26:10;1594765596.728589;portraitUpsideDown;-0.1570892333984375;0.5965118408203125;-0.0362396240234375;
2020-07-14 15:26:10;1594765596.768928;portraitUpsideDown;-0.3026580810546875;0.5237884521484375;0.04913330078125;
2020-07-14 15:26:10;1594765596.809346;portraitUpsideDown;-0.550872802734375;0.666839599609375;0.0385894775390625;
2020-07-14 15:26:10;1594765596.850717;portraitUpsideDown;-0.6309661865234375;0.8232879638671875;0.1317596435546875;
2020-07-14 15:26:10;1594765596.890279;portraitUpsideDown;-0.6973419189453125;0.8980255126953125;0.3004150390625;
2020-07-14 15:26:10;1594765596.9299788;portraitUpsideDown;-0.8625335693359375;0.90496826171875;0.2763671875;
2020-07-14 15:26:10;1594765596.9700289;portraitUpsideDown;-0.8961334228515625;0.9647674560546875;0.18109130859375;
2020-07-14 15:26:10;1594765597.008975;portraitUpsideDown;-0.9661102294921875;1.038360595703125;0.171295166015625;
2020-07-14 15:26:10;1594765597.050758;portraitUpsideDown;-0.9592437744140625;0.9770050048828125;0.2533721923828125;
2020-07-14 15:26:10;1594765597.089103;portraitUpsideDown;-0.9805145263671875;1.06903076171875;0.298828125;
2020-07-14 15:26:10;1594765597.1292949;portraitUpsideDown;-0.983917236328125;1.04730224609375;0.4069671630859375;
2020-07-14 15:26:10;1594765597.170289;portraitUpsideDown;-0.80126953125;0.824066162109375;0.3944091796875;
2020-07-14 15:26:10;1594765597.2100902;portraitUpsideDown;-0.817108154296875;0.9648590087890625;0.139251708984375;
2020-07-14 15:26:10;1594765597.243356;portraitUpsideDown;-0.8014984130859375;1.076629638671875;-0.076568603515625;
2020-07-14 15:26:10;1594765597.288723;portraitUpsideDown;-0.7285308837890625;1.08636474609375;-0.0909423828125;
2020-07-14 15:26:10;1594765597.32944;portraitUpsideDown;-0.7212677001953125;0.9812164306640625;-0.246917724609375;
2020-07-14 15:26:10;1594765597.36862;portraitUpsideDown;-0.8249664306640625;0.884246826171875;-0.3987579345703125;
2020-07-14 15:26:10;1594765597.409919;portraitUpsideDown;-0.9142608642578125;0.8976898193359375;-0.7658233642578125;
2020-07-14 15:26:10;1594765597.450451;portraitUpsideDown;-0.874420166015625;0.838470458984375;-0.878997802734375;
2020-07-14 15:26:10;1594765597.4897141;portraitUpsideDown;-0.923187255859375;0.7800750732421875;-0.9481201171875;
2020-07-14 15:26:10;1594765597.5305638;portraitUpsideDown;-0.8123626708984375;0.787567138671875;-0.871337890625;
2020-07-14 15:26:10;1594765597.570581;portraitUpsideDown;-0.6962432861328125;0.888641357421875;-0.685455322265625;
2020-07-14 15:26:10;1594765597.609354;portraitUpsideDown;0.34368896484375;1.066009521484375;0.2142791748046875;
2020-07-14 15:26:10;1594765597.6497521;portraitUpsideDown;-1.0041656494140625;0.927734375;-2.3016510009765625;
2020-07-14 15:26:10;1594765597.690655;portraitUpsideDown;-0.66802978515625;1.3806915283203125;-0.5142669677734375;
2020-07-14 15:26:10;1594765597.729127;portraitUpsideDown;-0.219512939453125;1.9315643310546875;0.1299591064453125;
2020-07-14 15:26:10;1594765597.770176;portraitUpsideDown;-0.36859130859375;1.490692138671875;-0.88653564453125;
2020-07-14 15:26:10;1594765597.8119159;portraitUpsideDown;-0.228271484375;1.3463592529296875;-0.299102783203125;
2020-07-14 15:26:10;1594765597.850542;portraitUpsideDown;-0.04730224609375;1.0913238525390625;0.3348846435546875;
2020-07-14 15:26:10;1594765597.8893452;portraitUpsideDown;0.648681640625;1.216064453125;0.15362548828125;
2020-07-14 15:26:10;1594765597.930614;portraitUpsideDown;0.525543212890625;1.3056640625;0.07611083984375;
2020-07-14 15:26:10;1594765597.968786;portraitUpsideDown;0.0403289794921875;1.3024444580078125;0.0585174560546875;
2020-07-14 15:26:10;1594765598.009852;portraitUpsideDown;0.1484375;1.218475341796875;0.048126220703125;
2020-07-14 15:26:10;1594765598.049234;portraitUpsideDown;0.0211944580078125;1.0384979248046875;0.2087554931640625;
2020-07-14 15:26:10;1594765598.089443;portraitUpsideDown;-0.326995849609375;0.974029541015625;0.37615966796875;
2020-07-14 15:26:10;1594765598.129708;portraitUpsideDown;-0.5163116455078125;0.952728271484375;0.2713775634765625;
2020-07-14 15:26:10;1594765598.170775;portraitUpsideDown;-0.5974578857421875;0.9770965576171875;0.3257598876953125;
2020-07-14 15:26:10;1594765598.210223;portraitUpsideDown;-0.7397003173828125;1.0546417236328125;0.3282012939453125;
2020-07-14 15:26:10;1594765598.2508001;portraitUpsideDown;-0.8630523681640625;1.118408203125;0.253631591796875;
2020-07-14 15:26:10;1594765598.289212;portraitUpsideDown;-1.004791259765625;1.1790618896484375;0.2436065673828125;
2020-07-14 15:26:10;1594765598.329622;portraitUpsideDown;-1.1529693603515625;1.1239471435546875;0.2358856201171875;
2020-07-14 15:26:10;1594765598.3696198;portraitUpsideDown;-1.352569580078125;0.7971649169921875;0.1841888427734375;
2020-07-14 15:26:10;1594765598.409608;portraitUpsideDown;-1.3849029541015625;0.715179443359375;-0.16448974609375;
2020-07-14 15:26:10;1594765598.450726;portraitUpsideDown;-1.16943359375;0.55487060546875;-0.093017578125;
2020-07-14 15:26:10;1594765598.49031;portraitUpsideDown;-1.0793304443359375;0.7695159912109375;0.0463104248046875;
2020-07-14 15:26:10;1594765598.530087;portraitUpsideDown;-1.0709381103515625;1.0353851318359375;0.002471923828125;
2020-07-14 15:26:10;1594765598.5705671;portraitUpsideDown;-1.00592041015625;1.1515350341796875;-0.1182098388671875;
2020-07-14 15:26:10;1594765598.610417;portraitUpsideDown;-1.0491485595703125;1.2614898681640625;-0.188873291015625;
2020-07-14 15:26:10;1594765598.651122;portraitUpsideDown;-1.13641357421875;1.4554595947265625;-0.2630462646484375;
2020-07-14 15:26:10;1594765598.690072;portraitUpsideDown;-1.0218353271484375;1.5878143310546875;-0.2645111083984375;
2020-07-14 15:26:10;1594765598.730359;portraitUpsideDown;-0.7822265625;1.5333099365234375;-0.2384796142578125;
2020-07-14 15:26:10;1594765598.769981;portraitUpsideDown;-0.59228515625;1.367950439453125;-0.2101593017578125;
2020-07-14 15:26:10;1594765598.810481;portraitUpsideDown;-0.362060546875;1.131988525390625;-0.19781494140625;
2020-07-14 15:26:10;1594765598.850558;portraitUpsideDown;-0.10638427734375;0.9088592529296875;-0.0721282958984375;
2020-07-14 15:26:10;1594765598.889512;portraitUpsideDown;0.2071990966796875;0.6915130615234375;0.0645294189453125;
2020-07-14 15:26:10;1594765598.931174;portraitUpsideDown;0.1506805419921875;0.780853271484375;0.2130889892578125;
2020-07-14 15:26:10;1594765598.970028;portraitUpsideDown;0.024505615234375;0.809967041015625;0.0402679443359375;
2020-07-14 15:26:10;1594765599.008572;portraitUpsideDown;-0.3939361572265625;1.087982177734375;-0.0791168212890625;
2020-07-14 15:26:10;1594765599.0512471;portraitUpsideDown;-0.584808349609375;1.3687286376953125;0.00274658203125;
2020-07-14 15:26:10;1594765599.0905418;portraitUpsideDown;-0.7274169921875;1.384246826171875;-0.008026123046875;
2020-07-14 15:26:10;1594765599.130482;portraitUpsideDown;-0.8915557861328125;1.1679840087890625;0.060943603515625;
2020-07-14 15:26:10;1594765599.171269;portraitUpsideDown;-0.904876708984375;1.1094207763671875;0.1359405517578125;
2020-07-14 15:26:10;1594765599.211162;portraitUpsideDown;-0.8697509765625;1.2537689208984375;0.002960205078125;
2020-07-14 15:26:10;1594765599.251807;portraitUpsideDown;-0.9037628173828125;1.3942413330078125;-0.20294189453125;
2020-07-14 15:26:10;1594765599.2910352;portraitUpsideDown;-0.987030029296875;1.2803802490234375;-0.345428466796875;
2020-07-14 15:26:10;1594765599.331188;portraitUpsideDown;-1.1418609619140625;1.184600830078125;-0.366180419921875;
2020-07-14 15:26:10;1594765599.370619;portraitUpsideDown;-1.2138671875;0.99578857421875;-0.1568603515625;
2020-07-14 15:26:10;1594765599.410255;portraitUpsideDown;-1.25067138671875;0.7967529296875;-0.05584716796875;
2020-07-14 15:26:10;1594765599.454268;portraitUpsideDown;-1.2558746337890625;0.823974609375;0.07373046875;
2020-07-14 15:26:10;1594765599.490149;portraitUpsideDown;-1.0179443359375;0.8012237548828125;0.04254150390625;
2020-07-14 15:26:10;1594765599.5314631;portraitUpsideDown;-0.973175048828125;0.9534759521484375;-0.118988037109375;
2020-07-14 15:26:10;1594765599.570418;portraitUpsideDown;-0.9640960693359375;1.1238555908203125;-0.18194580078125;
2020-07-14 15:26:10;1594765599.611045;portraitUpsideDown;-0.95404052734375;1.253875732421875;-0.1847991943359375;
2020-07-14 15:26:10;1594765599.651599;portraitUpsideDown;-0.9781494140625;1.394744873046875;-0.1784820556640625;
2020-07-14 15:26:10;1594765599.690884;portraitUpsideDown;-0.99066162109375;1.589141845703125;-0.0517578125;
2020-07-14 15:26:10;1594765599.731508;portraitUpsideDown;-0.8384552001953125;1.677215576171875;0.0958404541015625;
2020-07-14 15:26:10;1594765599.77114;portraitUpsideDown;-0.65191650390625;1.5636138916015625;0.10986328125;
2020-07-14 15:26:10;1594765599.8116221;portraitUpsideDown;-0.523162841796875;1.39105224609375;0.016937255859375;
2020-07-14 15:26:10;1594765599.8518429;portraitUpsideDown;-0.2651824951171875;1.194732666015625;0.0570068359375;
2020-07-14 15:26:10;1594765599.891107;portraitUpsideDown;-0.0039520263671875;0.963531494140625;0.277862548828125;
2020-07-14 15:26:10;1594765599.93051;portraitUpsideDown;-0.0036468505859375;0.826507568359375;0.26416015625;
2020-07-14 15:26:10;1594765599.9709182;portraitUpsideDown;-0.0232086181640625;0.95013427734375;0.12689208984375;
2020-07-14 15:26:10;1594765600.012177;portraitUpsideDown;-0.1316680908203125;0.9179534912109375;-0.2041778564453125;
2020-07-14 15:26:10;1594765600.052289;portraitUpsideDown;-0.3008880615234375;0.9447021484375;-0.30426025390625;
2020-07-14 15:26:10;1594765600.0911431;portraitUpsideDown;-0.401580810546875;0.993408203125;-0.22412109375;
2020-07-14 15:26:10;1594765600.131946;portraitUpsideDown;-0.4616851806640625;0.9594879150390625;-0.0665130615234375;
2020-07-14 15:26:10;1594765600.170887;portraitUpsideDown;-0.6051483154296875;0.923431396484375;0.004669189453125;
2020-07-14 15:26:10;1594765600.212847;portraitUpsideDown;-0.668975830078125;0.978851318359375;-0.0239105224609375;
2020-07-14 15:26:10;1594765600.25392;portraitUpsideDown;-0.75604248046875;1.16302490234375;-0.160797119140625;
2020-07-14 15:26:10;1594765600.29208;portraitUpsideDown;-0.871734619140625;1.38751220703125;-0.3893585205078125;
2020-07-14 15:26:10;1594765600.333825;portraitUpsideDown;-1.2171783447265625;1.5358428955078125;-0.5205841064453125;
2020-07-14 15:26:10;1594765600.371513;portraitUpsideDown;-1.6094970703125;1.392608642578125;-0.4199676513671875;
2020-07-14 15:26:10;1594765600.411498;portraitUpsideDown;-1.59600830078125;1.1550140380859375;-0.3142547607421875;
2020-07-14 15:26:10;1594765600.451333;portraitUpsideDown;-1.374969482421875;0.8075408935546875;-0.12042236328125;
2020-07-14 15:26:10;1594765600.4916658;portraitUpsideDown;-1.3798980712890625;0.790374755859375;-0.231048583984375;
2020-07-14 15:26:10;1594765600.53058;portraitUpsideDown;-1.172882080078125;0.6544647216796875;-0.25408935546875;
2020-07-14 15:26:10;1594765600.571676;portraitUpsideDown;-1.0564727783203125;0.8385772705078125;-0.298919677734375;
2020-07-14 15:26:10;1594765600.612601;portraitUpsideDown;-0.92449951171875;1.0728759765625;-0.307708740234375;
2020-07-14 15:26:10;1594765600.6537619;portraitUpsideDown;-0.825897216796875;1.16845703125;-0.3894195556640625;
2020-07-14 15:26:10;1594765600.692459;portraitUpsideDown;-0.860198974609375;1.1328277587890625;-0.4076995849609375;
2020-07-14 15:26:10;1594765600.73386;portraitUpsideDown;-0.8922119140625;1.2065277099609375;-0.3983154296875;
2020-07-14 15:26:10;1594765600.7716188;portraitUpsideDown;-0.8377227783203125;1.3799591064453125;-0.254791259765625;
2020-07-14 15:26:10;1594765600.81396;portraitUpsideDown;-0.627685546875;1.477783203125;-0.125335693359375;
2020-07-14 15:26:10;1594765600.853184;portraitUpsideDown;-0.3992156982421875;1.3845977783203125;-0.1386260986328125;
2020-07-14 15:26:10;1594765600.893505;portraitUpsideDown;-0.207611083984375;1.14013671875;-0.208221435546875;
2020-07-14 15:26:10;1594765600.9324899;portraitUpsideDown;0.0421295166015625;0.9311370849609375;0.1011199951171875;
2020-07-14 15:26:10;1594765600.971459;portraitUpsideDown;0.3875579833984375;0.8592529296875;0.229095458984375;
2020-07-14 15:26:10;1594765601.011798;portraitUpsideDown;0.2432098388671875;0.90777587890625;0.040679931640625;
2020-07-14 15:26:10;1594765601.054362;portraitUpsideDown;0.0699310302734375;0.9618377685546875;0.0300445556640625;
2020-07-14 15:26:10;1594765601.093844;portraitUpsideDown;-0.31640625;1.2410888671875;-0.1330108642578125;
2020-07-14 15:26:10;1594765601.134244;portraitUpsideDown;-0.5637054443359375;1.488800048828125;-0.01092529296875;
2020-07-14 15:26:10;1594765601.173635;portraitUpsideDown;-0.7757110595703125;1.454681396484375;0.105255126953125;
2020-07-14 15:26:10;1594765601.211738;portraitUpsideDown;-0.8634490966796875;1.171783447265625;0.075439453125;
2020-07-14 15:26:10;1594765601.253798;portraitUpsideDown;-0.87274169921875;1.077423095703125;-0.0448455810546875;
2020-07-14 15:26:10;1594765601.291759;portraitUpsideDown;-0.8532562255859375;1.14361572265625;-0.0837860107421875;
2020-07-14 15:26:10;1594765601.3323622;portraitUpsideDown;-0.832855224609375;1.1787872314453125;-0.17779541015625;
2020-07-14 15:26:10;1594765601.3740358;portraitUpsideDown;-0.8820648193359375;1.1453399658203125;-0.25677490234375;
2020-07-14 15:26:10;1594765601.4125319;portraitUpsideDown;-1.0327911376953125;1.1132659912109375;-0.3105010986328125;
2020-07-14 15:26:10;1594765601.4545631;portraitUpsideDown;-1.1374664306640625;1.0665130615234375;-0.22650146484375;
2020-07-14 15:26:10;1594765601.4939551;portraitUpsideDown;-1.0930023193359375;0.873443603515625;-0.0992889404296875;
2020-07-14 15:26:10;1594765601.534806;portraitUpsideDown;-1.2268218994140625;0.90960693359375;-0.0562896728515625;
2020-07-14 15:26:10;1594765601.572485;portraitUpsideDown;-1.0458984375;0.8735809326171875;-0.0558624267578125;
2020-07-14 15:26:10;1594765601.6140652;portraitUpsideDown;-1.0093231201171875;0.9554443359375;-0.103515625;
2020-07-14 15:26:10;1594765601.653162;portraitUpsideDown;-0.988525390625;1.170135498046875;-0.1867828369140625;
2020-07-14 15:26:10;1594765601.69143;portraitUpsideDown;-0.9542236328125;1.315338134765625;-0.3006744384765625;
2020-07-14 15:26:10;1594765601.732994;portraitUpsideDown;-0.8911285400390625;1.341400146484375;-0.35296630859375;
2020-07-14 15:26:10;1594765601.774369;portraitUpsideDown;-0.855316162109375;1.43023681640625;-0.38763427734375;
2020-07-14 15:26:10;1594765601.812677;portraitUpsideDown;-0.7958526611328125;1.5330963134765625;-0.341796875;
2020-07-14 15:26:10;1594765601.853785;portraitUpsideDown;-0.6475830078125;1.4739990234375;-0.246307373046875;
2020-07-14 15:26:10;1594765601.892486;portraitUpsideDown;-0.5007171630859375;1.35797119140625;-0.1660614013671875;
2020-07-14 15:26:10;1594765601.928588;portraitUpsideDown;-0.388427734375;1.219024658203125;-0.1307830810546875;
2020-07-14 15:26:10;1594765601.972923;portraitUpsideDown;-0.2786712646484375;1.0583343505859375;-0.098785400390625;
2020-07-14 15:26:10;1594765602.0136409;portraitUpsideDown;-0.174957275390625;0.7835845947265625;-0.0238189697265625;
2020-07-14 15:26:10;1594765602.055053;portraitUpsideDown;-0.2520751953125;0.6412811279296875;0.0152740478515625;
2020-07-14 15:26:10;1594765602.093739;portraitUpsideDown;-0.1531219482421875;0.5997467041015625;0.0789947509765625;
2020-07-14 15:26:10;1594765602.133779;portraitUpsideDown;-0.1918182373046875;0.564239501953125;0.02484130859375;
2020-07-14 15:26:10;1594765602.17445;portraitUpsideDown;-0.48992919921875;0.7501983642578125;0.07183837890625;
2020-07-14 15:26:10;1594765602.213478;portraitUpsideDown;-0.6120147705078125;0.986602783203125;0.0247955322265625;
2020-07-14 15:26:10;1594765602.255122;portraitUpsideDown;-0.6008758544921875;1.0678253173828125;-0.2529144287109375;
2020-07-14 15:26:10;1594765602.293082;portraitUpsideDown;-0.591278076171875;0.9708404541015625;-0.418060302734375;
2020-07-14 15:26:10;1594765602.3355331;portraitUpsideDown;-0.6581268310546875;0.9855499267578125;-0.393157958984375;
2020-07-14 15:26:10;1594765602.3729482;portraitUpsideDown;-0.7614288330078125;1.0953369140625;-0.39117431640625;
2020-07-14 15:26:10;1594765602.414969;portraitUpsideDown;-0.8066253662109375;1.170562744140625;-0.298370361328125;
2020-07-14 15:26:10;1594765602.453751;portraitUpsideDown;-0.8150634765625;1.2305145263671875;-0.2173309326171875;
2020-07-14 15:26:10;1594765602.4941158;portraitUpsideDown;-0.822784423828125;1.2855224609375;-0.2662200927734375;
2020-07-14 15:26:10;1594765602.533615;portraitUpsideDown;-0.8543243408203125;1.2917022705078125;-0.354736328125;
2020-07-14 15:26:10;1594765602.573972;portraitUpsideDown;-0.905059814453125;1.06048583984375;-0.3677215576171875;
2020-07-14 15:26:10;1594765602.612965;portraitUpsideDown;-1.1952362060546875;1.0060272216796875;-0.3799896240234375;
2020-07-14 15:26:10;1594765602.654731;portraitUpsideDown;-1.2461090087890625;0.9305572509765625;-0.329071044921875;
2020-07-14 15:26:10;1594765602.693156;portraitUpsideDown;-1.0633697509765625;0.7943267822265625;-0.1219940185546875;
2020-07-14 15:26:10;1594765602.735158;portraitUpsideDown;-0.915557861328125;0.8030548095703125;-0.09088134765625;
2020-07-14 15:26:10;1594765602.774064;portraitUpsideDown;-0.871246337890625;0.9248504638671875;-0.13592529296875;
2020-07-14 15:26:10;1594765602.814945;portraitUpsideDown;-0.88421630859375;1.0117645263671875;-0.2173309326171875;
2020-07-14 15:26:10;1594765602.854212;portraitUpsideDown;-0.9226837158203125;1.1927337646484375;-0.281524658203125;
2020-07-14 15:26:10;1594765602.894526;portraitUpsideDown;-0.95166015625;1.4456634521484375;-0.228790283203125;
2020-07-14 15:26:10;1594765602.93524;portraitUpsideDown;-0.8173980712890625;1.534820556640625;-0.1860198974609375;
2020-07-14 15:26:10;1594765602.974903;portraitUpsideDown;-0.6853485107421875;1.3896942138671875;-0.1850128173828125;
2020-07-14 15:26:10;1594765603.0143728;portraitUpsideDown;-0.6790313720703125;1.274993896484375;-0.0477447509765625;
2020-07-14 15:26:10;1594765603.056478;portraitUpsideDown;-0.4655303955078125;1.109130859375;0.306304931640625;
2020-07-14 15:26:10;1594765603.0938768;portraitUpsideDown;-0.2429046630859375;0.7753143310546875;0.279388427734375;
2020-07-14 15:26:10;1594765603.134059;portraitUpsideDown;-0.3715972900390625;0.586456298828125;-0.118438720703125;
2020-07-14 15:26:10;1594765603.173064;portraitUpsideDown;-0.569366455078125;0.7090606689453125;-0.2828369140625;
2020-07-14 15:26:10;1594765603.213708;portraitUpsideDown;-0.4637451171875;0.8032989501953125;-0.39422607421875;
2020-07-14 15:26:10;1594765603.2529259;portraitUpsideDown;-0.4631500244140625;0.755523681640625;-0.91668701171875;
2020-07-14 15:26:10;1594765603.295032;portraitUpsideDown;-0.2884674072265625;0.6707611083984375;-1.0646209716796875;
2020-07-14 15:26:10;1594765603.334173;portraitUpsideDown;-0.334014892578125;0.5452117919921875;-0.8200225830078125;
2020-07-14 15:26:10;1594765603.375087;portraitUpsideDown;-0.4429473876953125;0.37701416015625;-0.4455718994140625;
2020-07-14 15:26:10;1594765603.413512;portraitUpsideDown;-0.436859130859375;0.3230438232421875;-0.3184051513671875;
2020-07-14 15:26:10;1594765603.455467;portraitUpsideDown;-0.29345703125;0.354156494140625;-0.3102874755859375;
2020-07-14 15:26:10;1594765603.493675;portraitUpsideDown;-0.1917572021484375;0.4810333251953125;-0.4071807861328125;
2020-07-14 15:26:10;1594765603.536281;portraitUpsideDown;-0.2141876220703125;0.6301727294921875;-0.4686431884765625;
2020-07-14 15:26:10;1594765603.574494;portraitUpsideDown;-0.3172149658203125;0.85797119140625;-0.4302978515625;
2020-07-14 15:26:10;1594765603.6165218;portraitUpsideDown;-0.3719940185546875;1.22857666015625;-0.5269927978515625;
2020-07-14 15:26:10;1594765603.656694;portraitUpsideDown;-0.4179840087890625;1.4361419677734375;-0.8749237060546875;
2020-07-14 15:26:10;1594765603.696054;portraitUpsideDown;-0.8209381103515625;1.554443359375;-0.7971649169921875;
2020-07-14 15:26:10;1594765603.736909;portraitUpsideDown;-1.2323455810546875;1.2369842529296875;-0.7086639404296875;
2020-07-14 15:26:10;1594765603.776351;portraitUpsideDown;-1.8798675537109375;0.8605194091796875;-0.7943267822265625;
2020-07-14 15:26:10;1594765603.8159761;portraitUpsideDown;-1.7122039794921875;0.6512603759765625;-0.8401641845703125;
2020-07-14 15:26:10;1594765603.85602;portraitUpsideDown;-1.123077392578125;0.862701416015625;-0.6504058837890625;
2020-07-14 15:26:10;1594765603.89503;portraitUpsideDown;-0.763397216796875;0.8412322998046875;-0.5382843017578125;
2020-07-14 15:26:10;1594765603.936277;portraitUpsideDown;-0.8030853271484375;0.7841339111328125;-0.5425567626953125;
2020-07-14 15:26:10;1594765603.974875;portraitUpsideDown;-0.8510589599609375;0.919464111328125;-0.40142822265625;
2020-07-14 15:26:10;1594765604.015953;portraitUpsideDown;-0.852752685546875;1.1272125244140625;-0.221435546875;
2020-07-14 15:26:10;1594765604.057028;portraitUpsideDown;-0.754058837890625;1.2493133544921875;-0.1947784423828125;
2020-07-14 15:26:10;1594765604.096002;portraitUpsideDown;-0.636810302734375;1.29241943359375;-0.2492218017578125;
2020-07-14 15:26:10;1594765604.133988;portraitUpsideDown;-0.5507049560546875;1.282440185546875;-0.250701904296875;
2020-07-14 15:26:10;1594765604.174274;portraitUpsideDown;-0.3997344970703125;1.1931610107421875;-0.1822967529296875;
2020-07-14 15:26:10;1594765604.2144299;portraitUpsideDown;-0.1709136962890625;0.9122314453125;-0.1382904052734375;
2020-07-14 15:26:10;1594765604.256264;portraitUpsideDown;-0.00311279296875;0.8946380615234375;0.0058135986328125;
2020-07-14 15:26:10;1594765604.294839;portraitUpsideDown;0.1072845458984375;0.7957763671875;0.3533172607421875;
2020-07-14 15:26:10;1594765604.337463;portraitUpsideDown;-0.2591705322265625;1.0210418701171875;0.2725830078125;
2020-07-14 15:26:10;1594765604.374237;portraitUpsideDown;-0.4698638916015625;1.1898345947265625;0.0541534423828125;
2020-07-14 15:26:10;1594765604.416816;portraitUpsideDown;-0.396392822265625;1.118194580078125;-0.1324920654296875;
2020-07-14 15:26:10;1594765604.455027;portraitUpsideDown;-0.453857421875;1.0192108154296875;-0.1843414306640625;
2020-07-14 15:26:10;1594765604.49592;portraitUpsideDown;-0.561279296875;1.1101837158203125;-0.1519927978515625;
2020-07-14 15:26:10;1594765604.535425;portraitUpsideDown;-0.693878173828125;1.2607269287109375;-0.2274017333984375;
2020-07-14 15:26:10;1594765604.5756059;portraitUpsideDown;-0.68878173828125;1.45166015625;-0.3057098388671875;
2020-07-14 15:26:10;1594765604.614794;portraitUpsideDown;-0.7386474609375;1.57354736328125;-0.42828369140625;
2020-07-14 15:26:10;1594765604.6565619;portraitUpsideDown;-1.01947021484375;1.5690765380859375;-0.3835296630859375;
2020-07-14 15:26:10;1594765604.695737;portraitUpsideDown;-1.182525634765625;1.35955810546875;-0.0537261962890625;
2020-07-14 15:26:10;1594765604.736187;portraitUpsideDown;-1.2864227294921875;1.010498046875;0.1900634765625;
2020-07-14 15:26:10;1594765604.774478;portraitUpsideDown;-1.2182464599609375;0.9398651123046875;0.3070220947265625;
2020-07-14 15:26:10;1594765604.815342;portraitUpsideDown;-0.8721923828125;1.099334716796875;0.1562347412109375;
2020-07-14 15:26:10;1594765604.852437;portraitUpsideDown;-0.6328125;1.0831298828125;-0.101715087890625;
2020-07-14 15:26:10;1594765604.893066;portraitUpsideDown;-0.6339874267578125;1.1338653564453125;-0.308990478515625;
2020-07-14 15:26:10;1594765604.933265;portraitUpsideDown;-0.620849609375;1.2436676025390625;-0.2949066162109375;
2020-07-14 15:26:10;1594765604.973789;portraitUpsideDown;-0.5864715576171875;1.324676513671875;-0.239593505859375;
2020-07-14 15:26:10;1594765605.012713;portraitUpsideDown;-0.5891876220703125;1.346588134765625;-0.355987548828125;
2020-07-14 15:26:10;1594765605.0533361;portraitUpsideDown;-0.566009521484375;1.3880615234375;-0.45440673828125;
2020-07-14 15:26:10;1594765605.092701;portraitUpsideDown;-0.4950103759765625;1.410369873046875;-0.4507598876953125;
2020-07-14 15:26:10;1594765605.134098;portraitUpsideDown;-0.4587554931640625;1.3014373779296875;-0.388092041015625;
2020-07-14 15:26:10;1594765605.172687;portraitUpsideDown;-0.304840087890625;1.2590484619140625;-0.333587646484375;
2020-07-14 15:26:10;1594765605.2174091;portraitUpsideDown;-0.242767333984375;1.157806396484375;-0.3426666259765625;
2020-07-14 15:26:10;1594765605.256449;portraitUpsideDown;-0.18829345703125;0.9879150390625;-0.3557586669921875;
2020-07-14 15:26:10;1594765605.2964668;portraitUpsideDown;-0.1931915283203125;0.8245391845703125;-0.3930206298828125;
2020-07-14 15:26:10;1594765605.336046;portraitUpsideDown;-0.263092041015625;0.77935791015625;-0.366058349609375;
2020-07-14 15:26:10;1594765605.376542;portraitUpsideDown;-0.2926483154296875;0.8325958251953125;-0.2023773193359375;
2020-07-14 15:26:10;1594765605.4164882;portraitUpsideDown;-0.248046875;0.87738037109375;-0.0979766845703125;
2020-07-14 15:26:10;1594765605.4576092;portraitUpsideDown;-0.303131103515625;0.933013916015625;0.07220458984375;
2020-07-14 15:26:10;1594765605.495225;portraitUpsideDown;-0.3659820556640625;1.02508544921875;0.297149658203125;
2020-07-14 15:26:10;1594765605.536782;portraitUpsideDown;-0.393341064453125;1.0764923095703125;0.4166412353515625;
2020-07-14 15:26:10;1594765605.576473;portraitUpsideDown;-0.5011444091796875;1.064971923828125;0.3581695556640625;
2020-07-14 15:26:10;1594765605.617415;portraitUpsideDown;-0.6030426025390625;1.1500091552734375;0.1962890625;
2020-07-14 15:26:10;1594765605.6558928;portraitUpsideDown;-0.6902313232421875;1.2517852783203125;0.152374267578125;
2020-07-14 15:26:10;1594765605.698151;portraitUpsideDown;-0.7619781494140625;1.187347412109375;0.4023590087890625;
2020-07-14 15:26:10;1594765605.7363548;portraitUpsideDown;-0.862518310546875;1.1558990478515625;0.4272613525390625;
2020-07-14 15:26:10;1594765605.777244;portraitUpsideDown;-0.92510986328125;1.117889404296875;0.4130706787109375;
2020-07-14 15:26:10;1594765605.8167892;portraitUpsideDown;-0.908416748046875;0.9847412109375;0.30609130859375;
2020-07-14 15:26:10;1594765605.857932;portraitUpsideDown;-0.8558197021484375;0.8857269287109375;0.1847076416015625;
2020-07-14 15:26:10;1594765605.895853;portraitUpsideDown;-0.86114501953125;0.9886322021484375;0.0896148681640625;
2020-07-14 15:26:10;1594765605.937543;portraitUpsideDown;-0.7177581787109375;1.0800018310546875;-0.06494140625;
2020-07-14 15:26:10;1594765605.977593;portraitUpsideDown;-0.5491943359375;0.9021759033203125;-0.1945648193359375;
2020-07-14 15:26:10;1594765606.017724;portraitUpsideDown;-0.5623016357421875;0.816680908203125;-0.210418701171875;
2020-07-14 15:26:10;1594765606.055449;portraitUpsideDown;-0.6263427734375;0.9401092529296875;-0.16009521484375;
2020-07-14 15:26:10;1594765606.096997;portraitUpsideDown;-0.62713623046875;0.9982147216796875;-0.3384246826171875;
2020-07-14 15:26:10;1594765606.136595;portraitUpsideDown;-0.649200439453125;1.1281890869140625;-0.932403564453125;
2020-07-14 15:26:10;1594765606.177351;portraitUpsideDown;-0.475128173828125;1.1619415283203125;-1.2047119140625;
2020-07-14 15:26:10;1594765606.216757;portraitUpsideDown;-0.4850616455078125;1.0329132080078125;-0.9880218505859375;
2020-07-14 15:26:10;1594765606.257895;portraitUpsideDown;-0.486297607421875;0.87841796875;-1.2269744873046875;
2020-07-14 15:26:10;1594765606.2956429;portraitUpsideDown;-0.5550689697265625;0.8309173583984375;-1.0906524658203125;
2020-07-14 15:26:10;1594765606.329957;portraitUpsideDown;-0.8665313720703125;0.9801177978515625;-0.8968048095703125;
2020-07-14 15:26:10;1594765606.3768148;portraitUpsideDown;-0.9525146484375;1.24560546875;-0.78875732421875;
2020-07-14 15:26:10;1594765606.418263;portraitUpsideDown;-0.8705902099609375;1.4777374267578125;-0.673187255859375;
2020-07-14 15:26:10;1594765606.456789;portraitUpsideDown;-0.6629638671875;1.5970611572265625;-0.762786865234375;
2020-07-14 15:26:10;1594765606.49808;portraitUpsideDown;-0.431365966796875;1.55438232421875;-0.699859619140625;
2020-07-14 15:26:10;1594765606.5373359;portraitUpsideDown;-0.2853240966796875;1.3653717041015625;-0.4844818115234375;
2020-07-14 15:26:10;1594765606.570703;portraitUpsideDown;-0.15740966796875;1.1492919921875;-0.3946533203125;
2020-07-14 15:26:10;1594765606.616294;portraitUpsideDown;-0.1339569091796875;1.05694580078125;-0.3446197509765625;
2020-07-14 15:26:10;1594765606.658164;portraitUpsideDown;0.0339508056640625;0.90966796875;-0.233978271484375;
2020-07-14 15:26:10;1594765606.696655;portraitUpsideDown;0.1510772705078125;0.7238616943359375;-0.20709228515625;
2020-07-14 15:26:10;1594765606.73878;portraitUpsideDown;-0.0925750732421875;0.7401885986328125;0.0401153564453125;
2020-07-14 15:26:10;1594765606.776507;portraitUpsideDown;-0.2158660888671875;0.9228363037109375;0.267181396484375;
2020-07-14 15:26:10;1594765606.817838;portraitUpsideDown;-0.3506622314453125;1.141571044921875;0.187042236328125;
2020-07-14 15:26:10;1594765606.85892;portraitUpsideDown;-0.5942535400390625;1.1535797119140625;0.1153106689453125;
2020-07-14 15:26:10;1594765606.898158;portraitUpsideDown;-0.7043304443359375;1.1528778076171875;0.1543731689453125;
2020-07-14 15:26:10;1594765606.938307;portraitUpsideDown;-0.7657470703125;1.21478271484375;0.215545654296875;
2020-07-14 15:26:10;1594765606.9780412;portraitUpsideDown;-0.796234130859375;1.3381805419921875;0.2126617431640625;
2020-07-14 15:26:10;1594765607.018842;portraitUpsideDown;-0.8069915771484375;1.40625;0.2279205322265625;
2020-07-14 15:26:10;1594765607.058577;portraitUpsideDown;-0.836334228515625;1.3180389404296875;0.16009521484375;
2020-07-14 15:26:10;1594765607.0981932;portraitUpsideDown;-0.87457275390625;1.313812255859375;-0.079193115234375;
2020-07-14 15:26:10;1594765607.138538;portraitUpsideDown;-0.9171142578125;1.18365478515625;-0.071563720703125;
2020-07-14 15:26:10;1594765607.178103;portraitUpsideDown;-1.015777587890625;0.948883056640625;-0.15716552734375;
2020-07-14 15:26:10;1594765607.2187119;portraitUpsideDown;-1.208709716796875;0.8567657470703125;-0.4295501708984375;
2020-07-14 15:26:10;1594765607.251416;portraitUpsideDown;-1.1603851318359375;0.8605194091796875;-0.3411407470703125;
2020-07-14 15:26:10;1594765607.298455;portraitUpsideDown;-0.9149322509765625;0.882049560546875;-0.222930908203125;
2020-07-14 15:26:10;1594765607.339617;portraitUpsideDown;-0.8473663330078125;1.08612060546875;-0.3866729736328125;
2020-07-14 15:26:10;1594765607.378006;portraitUpsideDown;-0.8267364501953125;1.267791748046875;-0.5644378662109375;
2020-07-14 15:26:10;1594765607.418786;portraitUpsideDown;-0.7126922607421875;1.2287139892578125;-0.5768280029296875;
2020-07-14 15:26:10;1594765607.4589028;portraitUpsideDown;-0.649627685546875;1.20745849609375;-0.49951171875;
2020-07-14 15:26:10;1594765607.498956;portraitUpsideDown;-0.73046875;1.3741912841796875;-0.397216796875;
2020-07-14 15:26:10;1594765607.539258;portraitUpsideDown;-0.6966552734375;1.5425262451171875;-0.3604736328125;
2020-07-14 15:26:10;1594765607.578319;portraitUpsideDown;-0.59637451171875;1.5344390869140625;-0.4331512451171875;
2020-07-14 15:26:10;1594765607.6200728;portraitUpsideDown;-0.5072021484375;1.3542327880859375;-0.449981689453125;
2020-07-14 15:26:10;1594765607.659205;portraitUpsideDown;-0.4736175537109375;1.1619415283203125;-0.3995361328125;
2020-07-14 15:26:10;1594765607.698576;portraitUpsideDown;-0.42657470703125;1.001953125;-0.27587890625;
2020-07-14 15:26:10;1594765607.7383862;portraitUpsideDown;-0.261383056640625;0.7300567626953125;-0.1848297119140625;
2020-07-14 15:26:10;1594765607.7781138;portraitUpsideDown;-0.1922607421875;0.507171630859375;-0.1961212158203125;
2020-07-14 15:26:10;1594765607.819032;portraitUpsideDown;-0.31439208984375;0.644195556640625;-0.1927032470703125;
2020-07-14 15:26:10;1594765607.859212;portraitUpsideDown;-0.2648162841796875;0.73760986328125;-0.024505615234375;
2020-07-14 15:26:10;1594765607.899066;portraitUpsideDown;-0.289459228515625;0.860870361328125;0.09912109375;
2020-07-14 15:26:10;1594765607.939433;portraitUpsideDown;-0.5228424072265625;0.9593505859375;0.2604522705078125;
2020-07-14 15:26:10;1594765607.9783711;portraitUpsideDown;-0.850067138671875;0.97747802734375;0.270355224609375;
2020-07-14 15:26:10;1594765608.018744;portraitUpsideDown;-0.996185302734375;0.9935760498046875;0.1642608642578125;
2020-07-14 15:26:10;1594765608.059664;portraitUpsideDown;-1.22332763671875;0.96356201171875;-0.1106719970703125;
2020-07-14 15:26:10;1594765608.098825;portraitUpsideDown;-1.3751220703125;0.71881103515625;-0.1699676513671875;
2020-07-14 15:26:10;1594765608.139931;portraitUpsideDown;-1.466644287109375;0.586456298828125;-0.288238525390625;
2020-07-14 15:26:10;1594765608.179111;portraitUpsideDown;-1.4806060791015625;0.54425048828125;-0.37908935546875;
2020-07-14 15:26:10;1594765608.219156;portraitUpsideDown;-1.368560791015625;0.6569366455078125;-0.576812744140625;
2020-07-14 15:26:10;1594765608.259114;portraitUpsideDown;-1.42431640625;0.927337646484375;-0.5919952392578125;
2020-07-14 15:26:10;1594765608.300395;portraitUpsideDown;-1.3683624267578125;0.9740753173828125;-0.4084625244140625;
2020-07-14 15:26:10;1594765608.340026;portraitUpsideDown;-1.1988983154296875;1.0828399658203125;-0.4595489501953125;
2020-07-14 15:26:10;1594765608.3791099;portraitUpsideDown;-1.163177490234375;1.3776092529296875;-0.608551025390625;
2020-07-14 15:26:10;1594765608.418607;portraitUpsideDown;-1.0383758544921875;1.1992340087890625;-0.6339874267578125;
2020-07-14 15:26:10;1594765608.459667;portraitUpsideDown;-1.0617828369140625;0.9608154296875;-0.9254150390625;
2020-07-14 15:26:10;1594765608.499806;portraitUpsideDown;-1.1767120361328125;1.2622833251953125;-0.9137115478515625;
2020-07-14 15:26:10;1594765608.539569;portraitUpsideDown;-1.0410614013671875;1.143524169921875;-0.971710205078125;
2020-07-14 15:26:10;1594765608.578526;portraitUpsideDown;-0.932098388671875;1.0927886962890625;-1.27362060546875;
2020-07-14 15:26:10;1594765608.6207318;portraitUpsideDown;-1.0152435302734375;1.275909423828125;-1.268157958984375;
2020-07-14 15:26:10;1594765608.658788;portraitUpsideDown;-0.913970947265625;1.2188720703125;-1.202423095703125;
2020-07-14 15:26:10;1594765608.699422;portraitUpsideDown;-0.80322265625;1.211669921875;-1.2244110107421875;
2020-07-14 15:26:10;1594765608.740289;portraitUpsideDown;-0.5845184326171875;1.265045166015625;-0.9093475341796875;
2020-07-14 15:26:10;1594765608.780339;portraitUpsideDown;-0.356689453125;0.8261260986328125;-0.4971466064453125;
2020-07-14 15:26:10;1594765608.820256;portraitUpsideDown;-0.25714111328125;0.48797607421875;-0.493316650390625;
2020-07-14 15:26:10;1594765608.859429;portraitUpsideDown;0.021697998046875;0.256866455078125;-0.65509033203125;
2020-07-14 15:26:10;1594765608.9000301;portraitUpsideDown;0.057830810546875;0.22265625;-0.0238189697265625;
2020-07-14 15:26:10;1594765608.940403;portraitUpsideDown;-0.09222412109375;-0.00787353515625;0.2739715576171875;
2020-07-14 15:26:10;1594765608.978544;portraitUpsideDown;-0.0663299560546875;-0.1170196533203125;0.469207763671875;
2020-07-14 15:26:10;1594765609.018553;portraitUpsideDown;0.0064849853515625;-0.1567230224609375;0.4923248291015625;
2020-07-14 15:26:10;1594765609.058702;portraitUpsideDown;0.1988677978515625;-0.030426025390625;0.8226470947265625;
2020-07-14 15:26:10;1594765609.0995522;portraitUpsideDown;0.1298980712890625;0.1885223388671875;1.0599365234375;
2020-07-14 15:26:10;1594765609.1398869;portraitUpsideDown;0.2230377197265625;1.23065185546875;1.542205810546875;
2020-07-14 15:26:10;1594765609.1798239;portraitUpsideDown;-0.1139068603515625;2.28057861328125;2.3515777587890625;
2020-07-14 15:26:10;1594765609.219751;portraitUpsideDown;-0.592620849609375;3.096923828125;1.29620361328125;
2020-07-14 15:26:10;1594765609.2595859;portraitUpsideDown;-0.9478912353515625;2.7784576416015625;0.68280029296875;
2020-07-14 15:26:10;1594765609.300281;portraitUpsideDown;0.02850341796875;0.0204925537109375;-0.15106201171875;
2020-07-14 15:26:10;1594765609.339212;portraitUpsideDown;0.0172576904296875;0.0389251708984375;-0.188568115234375;
2020-07-14 15:26:10;1594765609.380266;portraitUpsideDown;6.3331298828125;-6.2499237060546875;-7.412078857421875;
2020-07-14 15:26:10;1594765609.419764;portraitUpsideDown;-0.4288177490234375;0.7365570068359375;-1.7569427490234375;
2020-07-14 15:26:10;1594765609.453144;portraitUpsideDown;0.04510498046875;0.0092010498046875;0.0267791748046875;
2020-07-14 15:26:10;1594765609.4992309;portraitUpsideDown;0.044097900390625;0.0193939208984375;0.01348876953125;
2020-07-14 15:26:10;1594765609.540114;portraitUpsideDown;0.04278564453125;0.018707275390625;0.00567626953125;
2020-07-14 15:26:10;1594765609.579451;portraitUpsideDown;0.04241943359375;0.0168304443359375;0.00439453125;
2020-07-14 15:26:10;1594765609.613457;portraitUpsideDown;-0.267913818359375;-0.564727783203125;0.8503875732421875;
2020-07-14 15:26:10;1594765609.6598759;portraitUpsideDown;-0.5769195556640625;0.141265869140625;-2.4734344482421875;
2020-07-14 15:26:10;1594765609.69852;portraitUpsideDown;0.587310791015625;0.201385498046875;-1.6899566650390625;
2020-07-14 15:26:10;1594765609.739653;portraitUpsideDown;-0.162750244140625;-0.2317657470703125;-0.380340576171875;
2020-07-14 15:26:10;1594765609.778486;portraitUpsideDown;-0.260986328125;-0.180450439453125;-1.1320648193359375;
2020-07-14 15:26:10;1594765609.819521;portraitUpsideDown;-0.20635986328125;-0.11224365234375;-1.0143890380859375;
2020-07-14 15:26:10;1594765609.859443;portraitUpsideDown;-0.1468963623046875;-0.1647186279296875;-0.9705352783203125;
2020-07-14 15:26:10;1594765609.8999271;portraitUpsideDown;-0.1824798583984375;-0.1174774169921875;-0.97113037109375;
2020-07-14 15:26:10;1594765609.939413;faceUp;-0.15704345703125;-0.1390533447265625;-0.974761962890625;
2020-07-14 15:26:10;1594765609.977736;faceUp;-0.18072509765625;-0.1317596435546875;-0.963104248046875;
2020-07-14 15:26:10;1594765610.016175;faceUp;-0.1719970703125;-0.1331939697265625;-0.9786529541015625;
2020-07-14 15:26:10;1594765610.0567188;faceUp;-0.168853759765625;-0.135528564453125;-0.972503662109375;
2020-07-14 15:26:10;1594765610.097865;faceUp;-0.1711578369140625;-0.1399993896484375;-0.9672698974609375;
2020-07-14 15:26:10;1594765610.139762;faceUp;-0.163848876953125;-0.12762451171875;-0.97772216796875;
2020-07-14 15:26:10;1594765610.17802;faceUp;-0.1724395751953125;-0.1457672119140625;-0.9654083251953125;
2020-07-14 15:26:10;1594765610.218175;faceUp;-0.16455078125;-0.121856689453125;-0.9785003662109375;
2020-07-14 15:26:10;1594765610.259342;faceUp;-0.1721649169921875;-0.1356658935546875;-0.9586181640625;
2020-07-14 15:26:10;1594765610.2997432;faceUp;-0.172119140625;-0.101470947265625;-0.978118896484375;
2020-07-14 15:26:10;1594765610.3397021;faceUp;-0.133453369140625;-0.2104034423828125;-0.9932861328125;
2020-07-14 15:26:10;1594765610.379198;faceUp;-0.1732025146484375;-0.131622314453125;-0.9913177490234375;
2020-07-14 15:26:10;1594765610.4192328;faceUp;-0.1684722900390625;-0.1552581787109375;-0.96417236328125;
2020-07-14 15:26:10;1594765610.458187;faceUp;-0.1668548583984375;-0.1370086669921875;-0.9726104736328125;
2020-07-14 15:26:10;1594765610.4965591;faceUp;-0.1637725830078125;-0.13873291015625;-0.9742889404296875;
2020-07-14 15:26:10;1594765610.539843;faceUp;-0.1581878662109375;-0.1389007568359375;-0.9734039306640625;
2020-07-14 15:26:10;1594765610.576003;faceUp;-0.15997314453125;-0.145751953125;-0.9727020263671875;
2020-07-14 15:26:10;1594765610.620708;faceUp;-0.150299072265625;-0.138916015625;-0.9542694091796875;
2020-07-14 15:26:10;1594765610.6601958;faceUp;-0.1716156005859375;-0.1419525146484375;-0.9699554443359375;
2020-07-14 15:26:10;1594765610.699747;faceUp;-0.14923095703125;-0.1528167724609375;-0.986572265625;
